{
  "resourceType" : "Bundle",
  "id" : "ps-02",
  "meta" : {
    "lastUpdated" : "2019-09-17T09:01:00+10:00"
  },
  "identifier" : {
    "system" : "urn:ietf:rfc:3986",
    "value" : "urn:uuid:e41cf5be-065d-4f48-9342-b399a34bf2c5"
  },
  "type" : "document",
  "timestamp" : "2019-09-17T09:01:00+10:00",
  "entry" : [{
    "fullUrl" : "urn:uuid:3f883564-c6af-4ca3-83c7-f7c7b5239026",
    "resource" : {
      "resourceType" : "Composition",
      "id" : "3f883564-c6af-4ca3-83c7-f7c7b5239026",
      "meta" : {
        "profile" : ["http://hl7.org.au.draft/fhir/aups/StructureDefinition/au-ps-composition"]
      },
      "language" : "en-AU",
      "text" : {
        "status" : "extensions",
        "div" : "<div xmlns=\"http://www.w3.org/1999/xhtml\" xml:lang=\"en-AU\" lang=\"en-AU\"><a name=\"Composition_3f883564-c6af-4ca3-83c7-f7c7b5239026\"> </a><p class=\"res-header-id\"><b>Generated Narrative: Composition 3f883564-c6af-4ca3-83c7-f7c7b5239026</b></p><a name=\"3f883564-c6af-4ca3-83c7-f7c7b5239026\"> </a><a name=\"hc3f883564-c6af-4ca3-83c7-f7c7b5239026\"> </a><a name=\"3f883564-c6af-4ca3-83c7-f7c7b5239026-en-AU\"> </a><div style=\"display: inline-block; background-color: #d9e0e7; padding: 6px; margin: 4px; border: 1px solid #8da1b4; border-radius: 5px; line-height: 60%\"><p style=\"margin-bottom: 0px\">Language: en-AU</p><p style=\"margin-bottom: 0px\">Profile: <a href=\"StructureDefinition-au-ps-composition.html\">AU Patient Summary Composition</a></p></div><p><b>Information Recipient</b>: <a href=\"Bundle-ps-02.html#urn-uuid-aa0dbd5f-4c3a-4623-a94c-4a7735b79851\">Bundle: identifier = UUID:e41cf5be-065d-4f48-9342-b399a34bf2c5; type = document; timestamp = 2019-09-17 09:01:00+1000</a></p><p><b>identifier</b>: <a href=\"http://terminology.hl7.org/5.0.0/NamingSystem-uri.html\" title=\"As defined by RFC 3986 (http://www.ietf.org/rfc/rfc3986.txt)(with many schemes defined in many RFCs). For OIDs and UUIDs, use the URN form (urn:oid:(note: lowercase) and urn:uuid:). See http://www.ietf.org/rfc/rfc3001.txt and http://www.ietf.org/rfc/rfc4122.txt \r\n\r\nThis oid is used as an identifier II.root to indicate the the extension is an absolute URI (technically, an IRI). Typically, this is used for OIDs and GUIDs. Note that when this OID is used with OIDs and GUIDs, the II.extension should start with urn:oid or urn:uuid: \r\n\r\nNote that this OID is created to aid with interconversion between CDA and FHIR - FHIR uses urn:ietf:rfc:3986 as equivalent to this OID. URIs as identifiers appear more commonly in FHIR.\r\n\r\nThis OID may also be used in CD.codeSystem.\">URI</a>/urn:uuid:b08d5b0a-5c5f-4e21-ae5d-f157405159ad</p><p><b>status</b>: Final</p><p><b>type</b>: <span title=\"Codes:{http://loinc.org 60591-5}\">Patient summary Document</span></p><p><b>category</b>: <span title=\"Codes:{http://loinc.org 60591-5}\">Patient summary Document</span></p><p><b>date</b>: 2019-09-17 09:00:00+1000</p><p><b>author</b>: <a href=\"Bundle-ps-02.html#urn-uuid-7adbe61a-fe69-4dc8-b2f6-a9e55a8b2127\">Bundle: identifier = UUID:e41cf5be-065d-4f48-9342-b399a34bf2c5; type = document; timestamp = 2019-09-17 09:01:00+1000</a></p><p><b>title</b>: Patient Summary</p><h3>Attesters</h3><table class=\"grid\"><tr><td style=\"display: none\">-</td><td><b>Mode</b></td><td><b>Time</b></td><td><b>Party</b></td></tr><tr><td style=\"display: none\">*</td><td>Legal</td><td>2019-09-17 09:00:00+1000</td><td><a href=\"Bundle-ps-02.html#urn-uuid-7adbe61a-fe69-4dc8-b2f6-a9e55a8b2127\">Bundle: identifier = UUID:e41cf5be-065d-4f48-9342-b399a34bf2c5; type = document; timestamp = 2019-09-17 09:01:00+1000</a></td></tr></table><p><b>custodian</b>: <a href=\"Bundle-ps-02.html#urn-uuid-4a78dc16-a7d0-4fc4-a505-3efd53012ac6\">Bundle: identifier = UUID:e41cf5be-065d-4f48-9342-b399a34bf2c5; type = document; timestamp = 2019-09-17 09:01:00+1000</a></p></div>"
      },
      "extension" : [{
        "url" : "http://hl7.org.au/fhir/StructureDefinition/information-recipient",
        "valueReference" : {
          "reference" : "urn:uuid:aa0dbd5f-4c3a-4623-a94c-4a7735b79851"
        }
      }],
      "identifier" : {
        "system" : "urn:ietf:rfc:3986",
        "value" : "urn:uuid:b08d5b0a-5c5f-4e21-ae5d-f157405159ad"
      },
      "status" : "final",
      "type" : {
        "coding" : [{
          "system" : "http://loinc.org",
          "code" : "60591-5"
        }]
      },
      "category" : [{
        "coding" : [{
          "system" : "http://loinc.org",
          "code" : "60591-5"
        }]
      }],
      "subject" : {
        "reference" : "urn:uuid:aa0dbd5f-4c3a-4623-a94c-4a7735b79851"
      },
      "date" : "2019-09-17T09:00:00+10:00",
      "author" : [{
        "reference" : "urn:uuid:7adbe61a-fe69-4dc8-b2f6-a9e55a8b2127"
      }],
      "title" : "Patient Summary",
      "attester" : [{
        "mode" : "legal",
        "time" : "2019-09-17T09:00:00+10:00",
        "party" : {
          "reference" : "urn:uuid:7adbe61a-fe69-4dc8-b2f6-a9e55a8b2127"
        }
      }],
      "custodian" : {
        "reference" : "urn:uuid:4a78dc16-a7d0-4fc4-a505-3efd53012ac6"
      },
      "section" : [{
        "title" : "Medicines",
        "code" : {
          "coding" : [{
            "system" : "http://loinc.org",
            "code" : "10160-0"
          }]
        },
        "text" : {
          "status" : "additional",
          "div" : "<div xmlns=\"http://www.w3.org/1999/xhtml\" lang=\"en-AU\">\n                            <table border=\"5\">\n                                <caption>Medicines</caption>\n                                <thead>\n                                    <tr>\n                                        <th>Medication</th>\n                                    </tr>\n                                </thead>\n                                <tbody>\n                                    <tr>\n                                        <td>Reaptan 10 mg/10 mg (perindopril arginine/amlodipine) tablet, 10</td>\n                                    </tr>\n                                </tbody>\n                            </table>\n                        </div>"
        },
        "entry" : [{
          "reference" : "urn:uuid:906f441e-de7f-4154-8487-8f3dac849c28"
        }]
      },
      {
        "title" : "Allergies and Adverse Reactions",
        "code" : {
          "coding" : [{
            "system" : "http://loinc.org",
            "code" : "48765-2",
            "display" : "Allergies and adverse reactions Document"
          }]
        },
        "text" : {
          "status" : "additional",
          "div" : "<div xmlns=\"http://www.w3.org/1999/xhtml\" lang=\"en-AU\">\n                            <p>Intolerance to lactose</p>\n                        </div>"
        },
        "entry" : [{
          "reference" : "urn:uuid:3d6d0334-b72b-49f3-9932-bc7befa84977"
        }]
      },
      {
        "title" : "Problems",
        "code" : {
          "coding" : [{
            "system" : "http://loinc.org",
            "code" : "11450-4",
            "display" : "Problem list - Reported"
          }]
        },
        "text" : {
          "status" : "additional",
          "div" : "<div xmlns=\"http://www.w3.org/1999/xhtml\">\n                            <table border=\"5\">\n                                <caption>Problems and Diagnoses</caption>\n                                <thead>\n                                    <tr>\n                                        <th>Condition</th>\n                                        <th>Onset</th>\n                                        <th>Abatement / Resolution</th>\n                                    </tr>\n                                </thead>\n                                <tbody>\n                                    <tr>\n                                        <td>Chronic kidney disease</td>\n                                        <td>2019</td>\n                                        <td>-</td>\n                                    </tr>\n                                    <tr>\n                                        <td>Right lower zone pneumonia</td>\n                                        <td>March 2019</td>\n                                        <td>April 2019</td>\n                                    </tr>\n                                </tbody>\n                            </table>\n                            <table border=\"5\">\n                                <caption>Procedures</caption>\n                                <thead>\n                                    <tr>\n                                        <th>Procedure</th>\n                                        <th>Date</th>\n                                    </tr>\n                                </thead>\n                                <tbody>\n                                    <tr>\n                                        <td>Total replacement of left knee joint</td>\n                                        <td>27 February 2019</td>\n                                    </tr>\n                                </tbody>\n                            </table>\n                        </div>"
        },
        "entry" : [{
          "reference" : "urn:uuid:441d4811-87bd-4979-a6bf-e097664b903f"
        }]
      },
      {
        "title" : "Immunisations",
        "code" : {
          "coding" : [{
            "system" : "http://loinc.org",
            "code" : "11369-6",
            "display" : "History of Immunization Narrative"
          }]
        },
        "text" : {
          "status" : "additional",
          "div" : "<div xmlns=\"http://www.w3.org/1999/xhtml\" lang=\"en-AU\">\n                            <table border=\"5\">\n                                <caption>Immunisations</caption>\n                                <thead>\n                                    <tr>\n                                        <th>Vaccine</th>\n                                        <th>Date administered</th>\n                                    </tr>\n                                </thead>\n                                <tbody>\n                                    <tr>\n                                        <td>Pfizer Comirnaty</td>\n                                        <td>17 June 2021</td>\n                                        <td/>\n                                    </tr>\n                                </tbody>\n                            </table>\n                        </div>"
        },
        "entry" : [{
          "reference" : "urn:uuid:e704739d-4139-403c-8ce1-776cb1f25210"
        }]
      }]
    }
  },
  {
    "fullUrl" : "urn:uuid:aa0dbd5f-4c3a-4623-a94c-4a7735b79851",
    "resource" : {
      "resourceType" : "Patient",
      "id" : "aa0dbd5f-4c3a-4623-a94c-4a7735b79851",
      "text" : {
        "status" : "generated",
        "div" : "<div xmlns=\"http://www.w3.org/1999/xhtml\"><a name=\"Patient_aa0dbd5f-4c3a-4623-a94c-4a7735b79851\"> </a><p class=\"res-header-id\"><b>Generated Narrative: Patient aa0dbd5f-4c3a-4623-a94c-4a7735b79851</b></p><a name=\"aa0dbd5f-4c3a-4623-a94c-4a7735b79851\"> </a><a name=\"hcaa0dbd5f-4c3a-4623-a94c-4a7735b79851\"> </a><a name=\"aa0dbd5f-4c3a-4623-a94c-4a7735b79851-en-AU\"> </a><p style=\"border: 1px #661aff solid; background-color: #e6e6ff; padding: 10px;\">Li Wang  Male, DoB: 1975-05-03 ( IHI:\u00a0Austalian Healthcare Identifier - Individual#8003608833357361)</p><hr/><table class=\"grid\"><tr><td style=\"background-color: #f3f5da\" title=\"Other Ids (see the one above)\">Other Ids:</td><td colspan=\"3\"><ul><li>Medicare Number/29533070322</li><li>Medical Record Number/2338189</li></ul></td></tr><tr><td style=\"background-color: #f3f5da\" title=\"Ways to contact the Patient\">Contact Detail</td><td colspan=\"3\">29 Gadsby Street Blacktown NSW 2148 AU (home)</td></tr><tr><td style=\"background-color: #f3f5da\" title=\"Language spoken\">Language:</td><td colspan=\"3\"><span title=\"Codes:{urn:ietf:bcp:47 yue}\">Cantonese</span> (preferred)</td></tr><tr><td style=\"background-color: #f3f5da\" title=\"Nominated Contact: unrelated friend\">unrelated friend:</td><td colspan=\"3\"><ul><li>Peter Rabbit Rabbit </li><li>29 Gadsby Street Blacktown NSW 2148 AU (home)</li><li>ph: 07 853 9191(Home)</li></ul></td></tr><tr><td style=\"background-color: #f3f5da\" title=\"The registered place of birth of the patient. A sytem may use the address.text if they don't store the birthPlace address in discrete elements.\"><a href=\"http://hl7.org/fhir/extensions/5.1.0/StructureDefinition-patient-birthPlace.html\">Patient Birth Place</a></td><td colspan=\"3\">China</td></tr><tr><td style=\"background-color: #f3f5da\" title=\"This extension applies to the Patient, RelatedPerson, and Practitioner resources and is used to represent a person's date of arrival in an Australian context (see [Australian Bureau of Statistics](https://www.abs.gov.au/AUSSTATS/abs@.nsf/Lookup/1200.0.55.007Main+Features12014,%20Version%201.5?OpenDocument) for further information). The date of arrival is when a person (born outside of Australia) first arrived in Australia, from another country, with the intention of living in Australia for one year or more. This date is recorded once for a person and is not subsequently updated with subsequent arrivals. This element is a part of Cultural and Linguistic Diversity (CALD) data set. It is an important indicator of cultural identity, and provides further information about a person's cultural values and practices which can be significant in determining service type, support required, and possible needs.\"><a href=\"https://build.fhir.org/ig/hl7au/au-fhir-base/StructureDefinition-date-of-arrival.html\">Date of Arrival in Australia</a></td><td colspan=\"3\">2015</td></tr><tr><td style=\"background-color: #f3f5da\" title=\"This extension applies to the Patient, Person, and RelatedPerson resources and is used to indicate whether a person identifies as being of Aboriginal or Torres Strait Islander origin.\"><a href=\"https://build.fhir.org/ig/hl7au/au-fhir-base/StructureDefinition-indigenous-status.html\">Australian Indigenous Status</a></td><td colspan=\"3\">australian-indigenous-status-1 4: Neither Aboriginal nor Torres Strait Islander origin</td></tr><tr><td style=\"background-color: #f3f5da\" title=\"This Patient requires an interpreter to communicate healthcare information to the practitioner.\"><a href=\"http://hl7.org/fhir/extensions/5.1.0/StructureDefinition-patient-interpreterRequired.html\">Patient Interpreter Required</a></td><td colspan=\"3\">true</td></tr></table></div>"
      },
      "extension" : [{
        "url" : "http://hl7.org/fhir/StructureDefinition/patient-birthPlace",
        "valueAddress" : {
          "text" : "China",
          "country" : "CHN"
        }
      },
      {
        "url" : "http://hl7.org.au/fhir/StructureDefinition/indigenous-status",
        "valueCoding" : {
          "system" : "https://healthterminologies.gov.au/fhir/CodeSystem/australian-indigenous-status-1",
          "code" : "4",
          "display" : "Neither Aboriginal nor Torres Strait Islander origin"
        }
      },
      {
        "url" : "http://hl7.org/fhir/StructureDefinition/patient-interpreterRequired",
        "valueBoolean" : true
      },
      {
        "url" : "http://hl7.org.au/fhir/StructureDefinition/date-of-arrival",
        "valueDate" : "2015"
      }],
      "identifier" : [{
        "extension" : [{
          "url" : "http://hl7.org.au/fhir/StructureDefinition/ihi-status",
          "valueCoding" : {
            "system" : "https://healthterminologies.gov.au/fhir/CodeSystem/ihi-status-1",
            "code" : "active"
          }
        },
        {
          "url" : "http://hl7.org.au/fhir/StructureDefinition/ihi-record-status",
          "valueCoding" : {
            "system" : "https://healthterminologies.gov.au/fhir/CodeSystem/ihi-record-status-1",
            "code" : "verified",
            "display" : "verified"
          }
        }],
        "type" : {
          "coding" : [{
            "system" : "http://terminology.hl7.org/CodeSystem/v2-0203",
            "code" : "NI"
          }],
          "text" : "IHI"
        },
        "system" : "http://ns.electronichealth.net.au/id/hi/ihi/1.0",
        "value" : "8003608833357361"
      },
      {
        "type" : {
          "coding" : [{
            "system" : "http://terminology.hl7.org/CodeSystem/v2-0203",
            "code" : "MC"
          }],
          "text" : "Medicare Number"
        },
        "system" : "http://ns.electronichealth.net.au/id/medicare-number",
        "value" : "29533070322"
      },
      {
        "type" : {
          "coding" : [{
            "system" : "http://terminology.hl7.org/CodeSystem/v2-0203",
            "code" : "MR",
            "display" : "Medical record number"
          }],
          "text" : "Medical Record Number"
        },
        "system" : "http://ns.electronichealth.net.au/id/hpio-scoped/medicalrecord/1.0/8003621566684455",
        "value" : "2338189",
        "assigner" : {
          "display" : "Large Metropolitan Hospital"
        }
      }],
      "name" : [{
        "family" : "Wang",
        "given" : ["Li"],
        "prefix" : ["Mr"]
      }],
      "gender" : "male",
      "birthDate" : "1975-05-03",
      "_birthDate" : {
        "extension" : [{
          "url" : "http://hl7.org.au/fhir/StructureDefinition/date-accuracy-indicator",
          "valueCoding" : {
            "system" : "https://healthterminologies.gov.au/fhir/CodeSystem/date-accuracy-indicator-1",
            "code" : "AAA",
            "display" : "Day, month and year are accurate"
          }
        }]
      },
      "address" : [{
        "use" : "home",
        "line" : ["29 Gadsby Street"],
        "city" : "Blacktown",
        "state" : "NSW",
        "postalCode" : "2148",
        "country" : "AU"
      }],
      "contact" : [{
        "relationship" : [{
          "coding" : [{
            "system" : "http://terminology.hl7.org/CodeSystem/v3-RoleCode",
            "code" : "FRND",
            "display" : "unrelated friend"
          },
          {
            "system" : "http://terminology.hl7.org/CodeSystem/v2-0131",
            "code" : "C",
            "display" : "Emergency Contact"
          }]
        }],
        "name" : {
          "use" : "usual",
          "family" : "Rabbit",
          "given" : ["Peter",
          "Rabbit"]
        },
        "telecom" : [{
          "system" : "phone",
          "value" : "07 853 9191",
          "use" : "home"
        }],
        "address" : {
          "use" : "home",
          "line" : ["29 Gadsby Street"],
          "city" : "Blacktown",
          "state" : "NSW",
          "postalCode" : "2148",
          "country" : "AU"
        }
      }],
      "communication" : [{
        "language" : {
          "coding" : [{
            "system" : "urn:ietf:bcp:47",
            "code" : "yue"
          }],
          "text" : "Cantonese"
        },
        "preferred" : true
      }]
    }
  },
  {
    "fullUrl" : "urn:uuid:7adbe61a-fe69-4dc8-b2f6-a9e55a8b2127",
    "resource" : {
      "resourceType" : "PractitionerRole",
      "id" : "7adbe61a-fe69-4dc8-b2f6-a9e55a8b2127",
      "text" : {
        "status" : "generated",
        "div" : "<div xmlns=\"http://www.w3.org/1999/xhtml\"><a name=\"PractitionerRole_7adbe61a-fe69-4dc8-b2f6-a9e55a8b2127\"> </a><p class=\"res-header-id\"><b>Generated Narrative: PractitionerRole 7adbe61a-fe69-4dc8-b2f6-a9e55a8b2127</b></p><a name=\"7adbe61a-fe69-4dc8-b2f6-a9e55a8b2127\"> </a><a name=\"hc7adbe61a-fe69-4dc8-b2f6-a9e55a8b2127\"> </a><a name=\"7adbe61a-fe69-4dc8-b2f6-a9e55a8b2127-en-AU\"> </a><p><b>identifier</b>: Employee Number/BBC-GA-001, HPI-I/8003619900015717</p><p><b>practitioner</b>: Identifier: Prescriber Number/553255</p><p><b>organization</b>: Identifier: HPI-O/8003621566684455</p><p><b>code</b>: <span title=\"Codes:{http://snomed.info/sct 62247001}, {http://www.abs.gov.au/ausstats/abs@.nsf/mf/1220.0 253111}\">General Practitioner</span></p><p><b>telecom</b>: ph: 0491579760, <a href=\"mailto:drbob@bobrestermedical.example.com\">drbob@bobrestermedical.example.com</a></p></div>"
      },
      "identifier" : [{
        "type" : {
          "coding" : [{
            "system" : "http://terminology.hl7.org/CodeSystem/v2-0203",
            "code" : "EI",
            "display" : "Employee number"
          }],
          "text" : "Employee Number"
        },
        "system" : "http://ns.electronichealth.net.au/id/hpio-scoped/service-provider-individual/1.0/8003621566684455",
        "value" : "BBC-GA-001",
        "assigner" : {
          "display" : "Bobregster Medical Center QLD"
        }
      },
      {
        "type" : {
          "coding" : [{
            "system" : "http://terminology.hl7.org/CodeSystem/v2-0203",
            "code" : "NPI",
            "display" : "National provider identifier"
          }],
          "text" : "HPI-I"
        },
        "system" : "http://ns.electronichealth.net.au/id/hi/hpii/1.0",
        "value" : "8003619900015717"
      }],
      "practitioner" : {
        "identifier" : {
          "type" : {
            "coding" : [{
              "system" : "http://terminology.hl7.org.au/CodeSystem/v2-0203",
              "code" : "PRES",
              "display" : "Prescriber Number"
            }],
            "text" : "Prescriber Number"
          },
          "system" : "http://ns.electronichealth.net.au/id/medicare-prescriber-number",
          "value" : "553255"
        }
      },
      "organization" : {
        "identifier" : {
          "type" : {
            "coding" : [{
              "system" : "http://terminology.hl7.org.au/CodeSystem/v2-0203",
              "code" : "NOI"
            }],
            "text" : "HPI-O"
          },
          "system" : "http://ns.electronichealth.net.au/id/hi/hpio/1.0",
          "value" : "8003621566684455"
        }
      },
      "code" : [{
        "coding" : [{
          "system" : "http://snomed.info/sct",
          "code" : "62247001"
        },
        {
          "system" : "http://www.abs.gov.au/ausstats/abs@.nsf/mf/1220.0",
          "code" : "253111"
        }],
        "text" : "General Practitioner"
      }],
      "telecom" : [{
        "system" : "phone",
        "value" : "0491579760"
      },
      {
        "system" : "email",
        "value" : "drbob@bobrestermedical.example.com"
      }]
    }
  },
  {
    "fullUrl" : "urn:uuid:4a78dc16-a7d0-4fc4-a505-3efd53012ac6",
    "resource" : {
      "resourceType" : "Organization",
      "id" : "4a78dc16-a7d0-4fc4-a505-3efd53012ac6",
      "text" : {
        "status" : "generated",
        "div" : "<div xmlns=\"http://www.w3.org/1999/xhtml\"><a name=\"Organization_4a78dc16-a7d0-4fc4-a505-3efd53012ac6\"> </a><p class=\"res-header-id\"><b>Generated Narrative: Organization 4a78dc16-a7d0-4fc4-a505-3efd53012ac6</b></p><a name=\"4a78dc16-a7d0-4fc4-a505-3efd53012ac6\"> </a><a name=\"hc4a78dc16-a7d0-4fc4-a505-3efd53012ac6\"> </a><a name=\"4a78dc16-a7d0-4fc4-a505-3efd53012ac6-en-AU\"> </a><p><b>type</b>: <span title=\"Codes:{http://snomed.info/sct 288565001}\">Medical Center</span></p><p><b>name</b>: Bobrester Medical Center</p><p><b>telecom</b>: <a href=\"mailto:info@bobrestermedical.example.com\">info@bobrestermedical.example.com</a>, ph: (07) 5550 2427(Work)</p><p><b>address</b>: 87 Western Esp Tindal RAAF QLD 4655 AU </p></div>"
      },
      "type" : [{
        "coding" : [{
          "system" : "http://snomed.info/sct",
          "code" : "288565001",
          "display" : "Medical centre"
        }],
        "text" : "Medical Center"
      }],
      "name" : "Bobrester Medical Center",
      "telecom" : [{
        "system" : "email",
        "value" : "info@bobrestermedical.example.com",
        "use" : "work"
      },
      {
        "system" : "phone",
        "value" : "(07) 5550 2427",
        "use" : "work"
      }],
      "address" : [{
        "line" : ["87 Western Esp"],
        "city" : "Tindal RAAF",
        "state" : "QLD",
        "postalCode" : "4655",
        "country" : "AU"
      }]
    }
  },
  {
    "fullUrl" : "urn:uuid:906f441e-de7f-4154-8487-8f3dac849c28",
    "resource" : {
      "resourceType" : "MedicationRequest",
      "id" : "906f441e-de7f-4154-8487-8f3dac849c28",
      "text" : {
        "status" : "generated",
        "div" : "<div xmlns=\"http://www.w3.org/1999/xhtml\"><a name=\"MedicationRequest_906f441e-de7f-4154-8487-8f3dac849c28\"> </a><p class=\"res-header-id\"><b>Generated Narrative: MedicationRequest 906f441e-de7f-4154-8487-8f3dac849c28</b></p><a name=\"906f441e-de7f-4154-8487-8f3dac849c28\"> </a><a name=\"hc906f441e-de7f-4154-8487-8f3dac849c28\"> </a><a name=\"906f441e-de7f-4154-8487-8f3dac849c28-en-AU\"> </a><p><b>status</b>: Active</p><p><b>intent</b>: Order</p><p><b>medication</b>: <a href=\"#hc906f441e-de7f-4154-8487-8f3dac849c28/med1\">Medication Reaptan 10 mg/10 mg (perindopril arginine/amlodipine) tablet, 10</a></p><p><b>subject</b>: <a href=\"Bundle-ps-02.html#urn-uuid-aa0dbd5f-4c3a-4623-a94c-4a7735b79851\">Bundle: identifier = UUID:e41cf5be-065d-4f48-9342-b399a34bf2c5; type = document; timestamp = 2019-09-17 09:01:00+1000</a></p><hr/><blockquote><p class=\"res-header-id\"><b>Generated Narrative: Medication  #med1</b></p><a name=\"906f441e-de7f-4154-8487-8f3dac849c28/med1\"> </a><a name=\"hc906f441e-de7f-4154-8487-8f3dac849c28/med1\"> </a><a name=\"906f441e-de7f-4154-8487-8f3dac849c28/med1-en-AU\"> </a><p><b>code</b>: <span title=\"Codes:{http://snomed.info/sct 926213011000036100}\">Reaptan 10 mg/10 mg (perindopril arginine/amlodipine) tablet, 10</span></p></blockquote></div>"
      },
      "contained" : [{
        "resourceType" : "Medication",
        "id" : "med1",
        "code" : {
          "coding" : [{
            "system" : "http://snomed.info/sct",
            "code" : "926213011000036100"
          }],
          "text" : "Reaptan 10 mg/10 mg (perindopril arginine/amlodipine) tablet, 10"
        }
      }],
      "status" : "active",
      "intent" : "order",
      "medicationReference" : {
        "reference" : "#med1"
      },
      "subject" : {
        "reference" : "urn:uuid:aa0dbd5f-4c3a-4623-a94c-4a7735b79851"
      }
    }
  },
  {
    "fullUrl" : "urn:uuid:441d4811-87bd-4979-a6bf-e097664b903f",
    "resource" : {
      "resourceType" : "Condition",
      "id" : "441d4811-87bd-4979-a6bf-e097664b903f",
      "text" : {
        "status" : "generated",
        "div" : "<div xmlns=\"http://www.w3.org/1999/xhtml\"><a name=\"Condition_441d4811-87bd-4979-a6bf-e097664b903f\"> </a><p class=\"res-header-id\"><b>Generated Narrative: Condition 441d4811-87bd-4979-a6bf-e097664b903f</b></p><a name=\"441d4811-87bd-4979-a6bf-e097664b903f\"> </a><a name=\"hc441d4811-87bd-4979-a6bf-e097664b903f\"> </a><a name=\"441d4811-87bd-4979-a6bf-e097664b903f-en-AU\"> </a><p><b>clinicalStatus</b>: <span title=\"Codes:{http://terminology.hl7.org/CodeSystem/condition-clinical active}\">Active</span></p><p><b>verificationStatus</b>: <span title=\"Codes:{http://terminology.hl7.org/CodeSystem/condition-ver-status confirmed}\">Confirmed</span></p><p><b>severity</b>: <span title=\"Codes:{http://snomed.info/sct 24484000}\">Severe</span></p><p><b>code</b>: <span title=\"Codes:{http://snomed.info/sct 709044004}\">Chronic kidney disease</span></p><p><b>subject</b>: <a href=\"Bundle-ps-02.html#urn-uuid-aa0dbd5f-4c3a-4623-a94c-4a7735b79851\">Bundle: identifier = UUID:e41cf5be-065d-4f48-9342-b399a34bf2c5; type = document; timestamp = 2019-09-17 09:01:00+1000</a></p></div>"
      },
      "clinicalStatus" : {
        "coding" : [{
          "system" : "http://terminology.hl7.org/CodeSystem/condition-clinical",
          "code" : "active",
          "display" : "Active"
        }],
        "text" : "Active"
      },
      "verificationStatus" : {
        "coding" : [{
          "system" : "http://terminology.hl7.org/CodeSystem/condition-ver-status",
          "code" : "confirmed"
        }]
      },
      "severity" : {
        "coding" : [{
          "system" : "http://snomed.info/sct",
          "code" : "24484000",
          "display" : "Severe"
        }]
      },
      "code" : {
        "coding" : [{
          "system" : "http://snomed.info/sct",
          "code" : "709044004",
          "display" : "Chronic kidney disease"
        }]
      },
      "subject" : {
        "reference" : "urn:uuid:aa0dbd5f-4c3a-4623-a94c-4a7735b79851"
      }
    }
  },
  {
    "fullUrl" : "urn:uuid:e704739d-4139-403c-8ce1-776cb1f25210",
    "resource" : {
      "resourceType" : "Immunization",
      "id" : "urn:uuid:e704739d-4139-403c-8ce1-776cb1f25210",
      "text" : {
        "status" : "generated",
        "div" : "<div xmlns=\"http://www.w3.org/1999/xhtml\"><a name=\"Immunization_urn:uuid:e704739d-4139-403c-8ce1-776cb1f25210\"> </a><p class=\"res-header-id\"><b>Generated Narrative: Immunization urn:uuid:e704739d-4139-403c-8ce1-776cb1f25210</b></p><a name=\"urn:uuid:e704739d-4139-403c-8ce1-776cb1f25210\"> </a><a name=\"hcurn:uuid:e704739d-4139-403c-8ce1-776cb1f25210\"> </a><a name=\"urn:uuid:e704739d-4139-403c-8ce1-776cb1f25210-en-AU\"> </a><p><b>status</b>: Completed</p><p><b>vaccineCode</b>: <span title=\"Codes:{https://www.humanservices.gov.au/organisations/health-professionals/enablers/air-vaccine-code-formats COMIRN}, {http://snomed.info/sct 1525011000168107}, {http://snomed.info/sct 1708651000168101}\">Pfizer Comirnaty</span></p><p><b>patient</b>: <a href=\"Bundle-ps-02.html#urn-uuid-aa0dbd5f-4c3a-4623-a94c-4a7735b79851\">Bundle: identifier = UUID:e41cf5be-065d-4f48-9342-b399a34bf2c5; type = document; timestamp = 2019-09-17 09:01:00+1000</a></p><p><b>occurrence</b>: 2021-06-17</p><p><b>recorded</b>: 2021-06-17</p><p><b>primarySource</b>: true</p></div>"
      },
      "status" : "completed",
      "vaccineCode" : {
        "coding" : [{
          "system" : "https://www.humanservices.gov.au/organisations/health-professionals/enablers/air-vaccine-code-formats",
          "code" : "COMIRN"
        },
        {
          "system" : "http://snomed.info/sct",
          "code" : "1525011000168107",
          "display" : "Comirnaty"
        },
        {
          "system" : "http://snomed.info/sct",
          "code" : "1708651000168101"
        }],
        "text" : "Pfizer Comirnaty"
      },
      "patient" : {
        "reference" : "urn:uuid:aa0dbd5f-4c3a-4623-a94c-4a7735b79851"
      },
      "occurrenceDateTime" : "2021-06-17",
      "recorded" : "2021-06-17",
      "primarySource" : true
    }
  },
  {
    "fullUrl" : "urn:uuid:3d6d0334-b72b-49f3-9932-bc7befa84977",
    "resource" : {
      "resourceType" : "AllergyIntolerance",
      "id" : "3d6d0334-b72b-49f3-9932-bc7befa84977",
      "text" : {
        "status" : "generated",
        "div" : "<div xmlns=\"http://www.w3.org/1999/xhtml\"><a name=\"AllergyIntolerance_3d6d0334-b72b-49f3-9932-bc7befa84977\"> </a><p class=\"res-header-id\"><b>Generated Narrative: AllergyIntolerance 3d6d0334-b72b-49f3-9932-bc7befa84977</b></p><a name=\"3d6d0334-b72b-49f3-9932-bc7befa84977\"> </a><a name=\"hc3d6d0334-b72b-49f3-9932-bc7befa84977\"> </a><a name=\"3d6d0334-b72b-49f3-9932-bc7befa84977-en-AU\"> </a><p><b>clinicalStatus</b>: <span title=\"Codes:{http://terminology.hl7.org/CodeSystem/allergyintolerance-clinical active}\">Active</span></p><p><b>verificationStatus</b>: <span title=\"Codes:{http://terminology.hl7.org/CodeSystem/allergyintolerance-verification confirmed}\">Confirmed</span></p><p><b>patient</b>: Identifier: IHI/8003608333647261</p></div>"
      },
      "clinicalStatus" : {
        "coding" : [{
          "system" : "http://terminology.hl7.org/CodeSystem/allergyintolerance-clinical",
          "code" : "active",
          "display" : "Active"
        }]
      },
      "verificationStatus" : {
        "coding" : [{
          "system" : "http://terminology.hl7.org/CodeSystem/allergyintolerance-verification",
          "code" : "confirmed",
          "display" : "Confirmed"
        }]
      },
      "patient" : {
        "identifier" : {
          "extension" : [{
            "url" : "http://hl7.org.au/fhir/StructureDefinition/ihi-status",
            "valueCoding" : {
              "system" : "https://healthterminologies.gov.au/fhir/CodeSystem/ihi-status-1",
              "code" : "active"
            }
          },
          {
            "url" : "http://hl7.org.au/fhir/StructureDefinition/ihi-record-status",
            "valueCoding" : {
              "system" : "https://healthterminologies.gov.au/fhir/CodeSystem/ihi-record-status-1",
              "code" : "verified",
              "display" : "verified"
            }
          }],
          "type" : {
            "coding" : [{
              "system" : "http://terminology.hl7.org/CodeSystem/v2-0203",
              "code" : "NI"
            }],
            "text" : "IHI"
          },
          "system" : "http://ns.electronichealth.net.au/id/hi/ihi/1.0",
          "value" : "8003608333647261"
        }
      }
    }
  }]
}