{
  "resourceType" : "Bundle",
  "id" : "ps-01",
  "meta" : {
    "lastUpdated" : "2019-09-17T09:01:00+10:00",
    "profile" : ["http://hl7.org/fhir/uv/ips/StructureDefinition/Bundle-uv-ips"]
  },
  "identifier" : {
    "system" : "urn:ietf:rfc:3986",
    "value" : "urn:uuid:be067109-ec6a-4c92-b831-5c8b7c11f114"
  },
  "type" : "document",
  "timestamp" : "2019-09-17T09:01:00+10:00",
  "entry" : [{
    "fullUrl" : "urn:uuid:72e7a36f-0cd5-4df6-bbc3-6d8084bc6171",
    "resource" : {
      "resourceType" : "Composition",
      "id" : "72e7a36f-0cd5-4df6-bbc3-6d8084bc6171",
      "meta" : {
        "profile" : ["http://hl7.org.au.draft/fhir/aups/StructureDefinition/au-ps-composition"]
      },
      "language" : "en-AU",
      "text" : {
        "status" : "extensions",
        "div" : "<div xmlns=\"http://www.w3.org/1999/xhtml\" xml:lang=\"en-AU\" lang=\"en-AU\"><a name=\"Composition_72e7a36f-0cd5-4df6-bbc3-6d8084bc6171\"> </a><p class=\"res-header-id\"><b>Generated Narrative: Composition 72e7a36f-0cd5-4df6-bbc3-6d8084bc6171</b></p><a name=\"72e7a36f-0cd5-4df6-bbc3-6d8084bc6171\"> </a><a name=\"hc72e7a36f-0cd5-4df6-bbc3-6d8084bc6171\"> </a><a name=\"72e7a36f-0cd5-4df6-bbc3-6d8084bc6171-en-AU\"> </a><div style=\"display: inline-block; background-color: #d9e0e7; padding: 6px; margin: 4px; border: 1px solid #8da1b4; border-radius: 5px; line-height: 60%\"><p style=\"margin-bottom: 0px\">Language: en-AU</p><p style=\"margin-bottom: 0px\">Profile: <a href=\"StructureDefinition-au-ps-composition.html\">AU Patient Summary Composition</a></p></div><p><b>Information Recipient</b>: <a href=\"Bundle-ps-01.html#urn-uuid-91d07c7b-8005-45fa-b7a5-52b2b5b99b04\">Bundle: identifier = UUID:be067109-ec6a-4c92-b831-5c8b7c11f114; type = document; timestamp = 2019-09-17 09:01:00+1000</a></p><p><b>identifier</b>: <a href=\"http://terminology.hl7.org/5.0.0/NamingSystem-uri.html\" title=\"As defined by RFC 3986 (http://www.ietf.org/rfc/rfc3986.txt)(with many schemes defined in many RFCs). For OIDs and UUIDs, use the URN form (urn:oid:(note: lowercase) and urn:uuid:). See http://www.ietf.org/rfc/rfc3001.txt and http://www.ietf.org/rfc/rfc4122.txt \r\n\r\nThis oid is used as an identifier II.root to indicate the the extension is an absolute URI (technically, an IRI). Typically, this is used for OIDs and GUIDs. Note that when this OID is used with OIDs and GUIDs, the II.extension should start with urn:oid or urn:uuid: \r\n\r\nNote that this OID is created to aid with interconversion between CDA and FHIR - FHIR uses urn:ietf:rfc:3986 as equivalent to this OID. URIs as identifiers appear more commonly in FHIR.\r\n\r\nThis OID may also be used in CD.codeSystem.\">URI</a>/urn:uuid:951e20032-7696-4143-9278-112728a88165</p><p><b>status</b>: Final</p><p><b>type</b>: <span title=\"Codes:{http://loinc.org 60591-5}\">Patient summary Document</span></p><p><b>category</b>: <span title=\"Codes:{http://loinc.org 60591-5}\">Patient summary Document</span></p><p><b>date</b>: 2019-09-17 09:00:00+1000</p><p><b>author</b>: <a href=\"Bundle-ps-01.html#urn-uuid-02de5993-7f97-45f5-9536-a14f3e6ade45\">Bundle: identifier = UUID:be067109-ec6a-4c92-b831-5c8b7c11f114; type = document; timestamp = 2019-09-17 09:01:00+1000</a></p><p><b>title</b>: Patient Summary</p><h3>Attesters</h3><table class=\"grid\"><tr><td style=\"display: none\">-</td><td><b>Mode</b></td><td><b>Time</b></td><td><b>Party</b></td></tr><tr><td style=\"display: none\">*</td><td>Legal</td><td>2019-09-17 09:00:00+1000</td><td><a href=\"Bundle-ps-01.html#urn-uuid-02de5993-7f97-45f5-9536-a14f3e6ade45\">Bundle: identifier = UUID:be067109-ec6a-4c92-b831-5c8b7c11f114; type = document; timestamp = 2019-09-17 09:01:00+1000</a></td></tr></table><p><b>custodian</b>: <a href=\"Bundle-ps-01.html#urn-uuid-744a02aa-0056-461e-bdf2-9f46eb0e524c\">Bundle: identifier = UUID:be067109-ec6a-4c92-b831-5c8b7c11f114; type = document; timestamp = 2019-09-17 09:01:00+1000</a></p></div>"
      },
      "extension" : [{
        "url" : "http://hl7.org.au/fhir/StructureDefinition/information-recipient",
        "valueReference" : {
          "reference" : "urn:uuid:91d07c7b-8005-45fa-b7a5-52b2b5b99b04"
        }
      }],
      "identifier" : {
        "system" : "urn:ietf:rfc:3986",
        "value" : "urn:uuid:951e20032-7696-4143-9278-112728a88165"
      },
      "status" : "final",
      "type" : {
        "coding" : [{
          "system" : "http://loinc.org",
          "code" : "60591-5"
        }]
      },
      "category" : [{
        "coding" : [{
          "system" : "http://loinc.org",
          "code" : "60591-5"
        }]
      }],
      "subject" : {
        "identifier" : {
          "type" : {
            "coding" : [{
              "system" : "http://terminology.hl7.org/CodeSystem/v2-0203",
              "code" : "NI",
              "display" : "National unique individual identifier"
            }],
            "text" : "IHI"
          },
          "system" : "http://ns.electronichealth.net.au/id/hi/ihi/1.0",
          "value" : "8003608833357361"
        },
        "reference" : "urn:uuid:91d07c7b-8005-45fa-b7a5-52b2b5b99b04"
      },
      "date" : "2019-09-17T09:00:00+10:00",
      "author" : [{
        "reference" : "urn:uuid:02de5993-7f97-45f5-9536-a14f3e6ade45"
      }],
      "title" : "Patient Summary",
      "attester" : [{
        "mode" : "legal",
        "time" : "2019-09-17T09:00:00+10:00",
        "party" : {
          "reference" : "urn:uuid:02de5993-7f97-45f5-9536-a14f3e6ade45"
        }
      }],
      "custodian" : {
        "reference" : "urn:uuid:744a02aa-0056-461e-bdf2-9f46eb0e524c"
      },
      "section" : [{
        "title" : "Medicines",
        "code" : {
          "coding" : [{
            "system" : "http://loinc.org",
            "code" : "10160-0"
          }]
        },
        "text" : {
          "status" : "additional",
          "div" : "<div xmlns=\"http://www.w3.org/1999/xhtml\" lang=\"en-AU\">\n              <table border=\"5\">\n                <caption>Medicines</caption>\n                <thead>\n                  <tr>\n                    <th>Medication</th>\n                  </tr>\n                </thead>\n                <tbody>\n                  <tr>\n                    <td>Reaptan 10 mg/10 mg (perindopril arginine/amlodipine) tablet, 10</td>\n                  </tr>\n                </tbody>\n              </table>\n            </div>"
        },
        "entry" : [{
          "reference" : "urn:uuid:8677944d-0fb2-4d31-93eb-0e854a95bb53"
        }]
      },
      {
        "title" : "Allergies and Adverse Reactions",
        "code" : {
          "coding" : [{
            "system" : "http://loinc.org",
            "code" : "48765-2",
            "display" : "Allergies and adverse reactions Document"
          }]
        },
        "text" : {
          "status" : "additional",
          "div" : "<div xmlns=\"http://www.w3.org/1999/xhtml\" lang=\"en-AU\">\n              <p>Intolerance to lactose</p>\n            </div>"
        },
        "entry" : [{
          "reference" : "urn:uuid:7b1ac102-82f1-4424-8be0-fe0f35987f4e"
        }]
      },
      {
        "title" : "Problems",
        "code" : {
          "coding" : [{
            "system" : "http://loinc.org",
            "code" : "11450-4",
            "display" : "Problem list - Reported"
          }]
        },
        "text" : {
          "status" : "additional",
          "div" : "<div xmlns=\"http://www.w3.org/1999/xhtml\">\n              <table border=\"5\">\n                <caption>Problems and Diagnoses</caption>\n                <thead>\n                  <tr>\n                    <th>Condition</th>\n                    <th>Onset</th>\n                    <th>Abatement / Resolution</th>\n                  </tr>\n                </thead>\n                <tbody>\n                  <tr>\n                    <td>Chronic kidney disease</td>\n                    <td>2019</td>\n                    <td>-</td>\n                  </tr>\n                  <tr>\n                    <td>Right lower zone pneumonia</td>\n                    <td>March 2019</td>\n                    <td>April 2019</td>\n                  </tr>\n                </tbody>\n              </table>\n              <table border=\"5\">\n                <caption>Procedures</caption>\n                <thead>\n                  <tr>\n                    <th>Procedure</th>\n                    <th>Date</th>\n                  </tr>\n                </thead>\n                <tbody>\n                  <tr>\n                    <td>Total replacement of left knee joint</td>\n                    <td>27 February 2019</td>\n                  </tr>\n                </tbody>\n              </table>\n            </div>"
        },
        "entry" : [{
          "reference" : "urn:uuid:b021320c-bc5e-4ae8-b9fc-1ed2d876e889"
        }]
      },
      {
        "title" : "Immunisations",
        "code" : {
          "coding" : [{
            "system" : "http://loinc.org",
            "code" : "11369-6",
            "display" : "History of Immunization Narrative"
          }]
        },
        "text" : {
          "status" : "additional",
          "div" : "<div xmlns=\"http://www.w3.org/1999/xhtml\" lang=\"en-AU\">\n              <table border=\"5\">\n                <caption>Immunisations</caption>\n                <thead>\n                  <tr>\n                    <th>Vaccine</th>\n                    <th>Date administered</th>\n                  </tr>\n                </thead>\n                <tbody>\n                  <tr>\n                    <td>Pfizer Comirnaty</td>\n                    <td>17 June 2021</td>\n                    <td/>\n                  </tr>\n                </tbody>\n              </table>\n            </div>"
        },
        "entry" : [{
          "reference" : "urn:uuid:3aa565a7-827c-4243-9c0b-d138e9f607a8"
        }]
      }]
    }
  },
  {
    "fullUrl" : "urn:uuid:91d07c7b-8005-45fa-b7a5-52b2b5b99b04",
    "resource" : {
      "resourceType" : "Patient",
      "id" : "91d07c7b-8005-45fa-b7a5-52b2b5b99b04",
      "meta" : {
        "profile" : ["http://hl7.org.au.draft/fhir/aups/StructureDefinition/au-ps-patient"]
      },
      "text" : {
        "status" : "generated",
        "div" : "<div xmlns=\"http://www.w3.org/1999/xhtml\"><a name=\"Patient_91d07c7b-8005-45fa-b7a5-52b2b5b99b04\"> </a><p class=\"res-header-id\"><b>Generated Narrative: Patient 91d07c7b-8005-45fa-b7a5-52b2b5b99b04</b></p><a name=\"91d07c7b-8005-45fa-b7a5-52b2b5b99b04\"> </a><a name=\"hc91d07c7b-8005-45fa-b7a5-52b2b5b99b04\"> </a><a name=\"91d07c7b-8005-45fa-b7a5-52b2b5b99b04-en-AU\"> </a><p style=\"border: 1px #661aff solid; background-color: #e6e6ff; padding: 10px;\">Li Wang  Male, DoB: 1975-05-03 ( IHI:\u00a0Austalian Healthcare Identifier - Individual#8003608833357361)</p><hr/><table class=\"grid\"><tr><td style=\"background-color: #f3f5da\" title=\"Other Ids (see the one above)\">Other Ids:</td><td colspan=\"3\"><ul><li>Medicare Number/29533070322</li><li>Medical Record Number/2338189</li></ul></td></tr><tr><td style=\"background-color: #f3f5da\" title=\"Ways to contact the Patient\">Contact Detail</td><td colspan=\"3\">29 Gadsby Street Blacktown NSW 2148 AU (home)</td></tr><tr><td style=\"background-color: #f3f5da\" title=\"Language spoken\">Language:</td><td colspan=\"3\"><span title=\"Codes:{urn:ietf:bcp:47 yue}\">Cantonese</span> (preferred)</td></tr><tr><td style=\"background-color: #f3f5da\" title=\"Nominated Contact: unrelated friend\">unrelated friend:</td><td colspan=\"3\"><ul><li>Peter Rabbit Rabbit </li><li>29 Gadsby Street Blacktown NSW 2148 AU (home)</li><li>ph: 07 853 9191(Home)</li></ul></td></tr><tr><td style=\"background-color: #f3f5da\" title=\"The registered place of birth of the patient. A sytem may use the address.text if they don't store the birthPlace address in discrete elements.\"><a href=\"http://hl7.org/fhir/extensions/5.1.0/StructureDefinition-patient-birthPlace.html\">Patient Birth Place</a></td><td colspan=\"3\">China</td></tr><tr><td style=\"background-color: #f3f5da\" title=\"This extension applies to the Patient, RelatedPerson, and Practitioner resources and is used to represent a person's date of arrival in an Australian context (see [Australian Bureau of Statistics](https://www.abs.gov.au/AUSSTATS/abs@.nsf/Lookup/1200.0.55.007Main+Features12014,%20Version%201.5?OpenDocument) for further information). The date of arrival is when a person (born outside of Australia) first arrived in Australia, from another country, with the intention of living in Australia for one year or more. This date is recorded once for a person and is not subsequently updated with subsequent arrivals. This element is a part of Cultural and Linguistic Diversity (CALD) data set. It is an important indicator of cultural identity, and provides further information about a person's cultural values and practices which can be significant in determining service type, support required, and possible needs.\"><a href=\"https://build.fhir.org/ig/hl7au/au-fhir-base/StructureDefinition-date-of-arrival.html\">Date of Arrival in Australia</a></td><td colspan=\"3\">2015</td></tr><tr><td style=\"background-color: #f3f5da\" title=\"This extension applies to the Patient, Person, and RelatedPerson resources and is used to indicate whether a person identifies as being of Aboriginal or Torres Strait Islander origin.\"><a href=\"https://build.fhir.org/ig/hl7au/au-fhir-base/StructureDefinition-indigenous-status.html\">Australian Indigenous Status</a></td><td colspan=\"3\">australian-indigenous-status-1 4: Neither Aboriginal nor Torres Strait Islander origin</td></tr><tr><td style=\"background-color: #f3f5da\" title=\"This Patient requires an interpreter to communicate healthcare information to the practitioner.\"><a href=\"http://hl7.org/fhir/extensions/5.1.0/StructureDefinition-patient-interpreterRequired.html\">Patient Interpreter Required</a></td><td colspan=\"3\">true</td></tr></table></div>"
      },
      "extension" : [{
        "url" : "http://hl7.org/fhir/StructureDefinition/patient-birthPlace",
        "valueAddress" : {
          "text" : "China",
          "country" : "CHN"
        }
      },
      {
        "url" : "http://hl7.org.au/fhir/StructureDefinition/indigenous-status",
        "valueCoding" : {
          "system" : "https://healthterminologies.gov.au/fhir/CodeSystem/australian-indigenous-status-1",
          "code" : "4",
          "display" : "Neither Aboriginal nor Torres Strait Islander origin"
        }
      },
      {
        "url" : "http://hl7.org/fhir/StructureDefinition/patient-interpreterRequired",
        "valueBoolean" : true
      },
      {
        "url" : "http://hl7.org.au/fhir/StructureDefinition/date-of-arrival",
        "valueDate" : "2015"
      }],
      "identifier" : [{
        "extension" : [{
          "url" : "http://hl7.org.au/fhir/StructureDefinition/ihi-status",
          "valueCoding" : {
            "system" : "https://healthterminologies.gov.au/fhir/CodeSystem/ihi-status-1",
            "code" : "active"
          }
        },
        {
          "url" : "http://hl7.org.au/fhir/StructureDefinition/ihi-record-status",
          "valueCoding" : {
            "system" : "https://healthterminologies.gov.au/fhir/CodeSystem/ihi-record-status-1",
            "code" : "verified",
            "display" : "verified"
          }
        }],
        "type" : {
          "coding" : [{
            "system" : "http://terminology.hl7.org/CodeSystem/v2-0203",
            "code" : "NI"
          }],
          "text" : "IHI"
        },
        "system" : "http://ns.electronichealth.net.au/id/hi/ihi/1.0",
        "value" : "8003608833357361"
      },
      {
        "type" : {
          "coding" : [{
            "system" : "http://terminology.hl7.org/CodeSystem/v2-0203",
            "code" : "MC"
          }],
          "text" : "Medicare Number"
        },
        "system" : "http://ns.electronichealth.net.au/id/medicare-number",
        "value" : "29533070322"
      },
      {
        "type" : {
          "coding" : [{
            "system" : "http://terminology.hl7.org/CodeSystem/v2-0203",
            "code" : "MR",
            "display" : "Medical record number"
          }],
          "text" : "Medical Record Number"
        },
        "system" : "http://ns.electronichealth.net.au/id/hpio-scoped/medicalrecord/1.0/8003621566684455",
        "value" : "2338189",
        "assigner" : {
          "display" : "Large Metropolitan Hospital"
        }
      }],
      "name" : [{
        "family" : "Wang",
        "given" : ["Li"],
        "prefix" : ["Mr"]
      }],
      "gender" : "male",
      "birthDate" : "1975-05-03",
      "_birthDate" : {
        "extension" : [{
          "url" : "http://hl7.org.au/fhir/StructureDefinition/date-accuracy-indicator",
          "valueCoding" : {
            "system" : "https://healthterminologies.gov.au/fhir/CodeSystem/date-accuracy-indicator-1",
            "code" : "AAA",
            "display" : "Day, month and year are accurate"
          }
        }]
      },
      "address" : [{
        "use" : "home",
        "line" : ["29 Gadsby Street"],
        "city" : "Blacktown",
        "state" : "NSW",
        "postalCode" : "2148",
        "country" : "AU"
      }],
      "contact" : [{
        "relationship" : [{
          "coding" : [{
            "system" : "http://terminology.hl7.org/CodeSystem/v3-RoleCode",
            "code" : "FRND",
            "display" : "unrelated friend"
          },
          {
            "system" : "http://terminology.hl7.org/CodeSystem/v2-0131",
            "code" : "C",
            "display" : "Emergency Contact"
          }]
        }],
        "name" : {
          "use" : "usual",
          "family" : "Rabbit",
          "given" : ["Peter",
          "Rabbit"]
        },
        "telecom" : [{
          "system" : "phone",
          "value" : "07 853 9191",
          "use" : "home"
        }],
        "address" : {
          "use" : "home",
          "line" : ["29 Gadsby Street"],
          "city" : "Blacktown",
          "state" : "NSW",
          "postalCode" : "2148",
          "country" : "AU"
        }
      }],
      "communication" : [{
        "language" : {
          "coding" : [{
            "system" : "urn:ietf:bcp:47",
            "code" : "yue"
          }],
          "text" : "Cantonese"
        },
        "preferred" : true
      }]
    }
  },
  {
    "fullUrl" : "urn:uuid:02de5993-7f97-45f5-9536-a14f3e6ade45",
    "resource" : {
      "resourceType" : "PractitionerRole",
      "id" : "02de5993-7f97-45f5-9536-a14f3e6ade45",
      "meta" : {
        "profile" : ["http://hl7.org.au.draft/fhir/aups/StructureDefinition/au-ps-practitionerrole"]
      },
      "text" : {
        "status" : "generated",
        "div" : "<div xmlns=\"http://www.w3.org/1999/xhtml\"><a name=\"PractitionerRole_02de5993-7f97-45f5-9536-a14f3e6ade45\"> </a><p class=\"res-header-id\"><b>Generated Narrative: PractitionerRole 02de5993-7f97-45f5-9536-a14f3e6ade45</b></p><a name=\"02de5993-7f97-45f5-9536-a14f3e6ade45\"> </a><a name=\"hc02de5993-7f97-45f5-9536-a14f3e6ade45\"> </a><a name=\"02de5993-7f97-45f5-9536-a14f3e6ade45-en-AU\"> </a><p><b>identifier</b>: Employee Number/BBC-GA-001</p><p><b>practitioner</b>: <a href=\"Bundle-ps-01.html#urn-uuid-40a94071-8373-4d53-a788-63b79c75a3c1\">Bundle: identifier = UUID:be067109-ec6a-4c92-b831-5c8b7c11f114; type = document; timestamp = 2019-09-17 09:01:00+1000</a></p><p><b>organization</b>: <a href=\"Bundle-ps-01.html#urn-uuid-744a02aa-0056-461e-bdf2-9f46eb0e524c\">Bundle: identifier = UUID:be067109-ec6a-4c92-b831-5c8b7c11f114; type = document; timestamp = 2019-09-17 09:01:00+1000</a></p><p><b>code</b>: <span title=\"Codes:{http://snomed.info/sct 62247001}, {http://www.abs.gov.au/ausstats/abs@.nsf/mf/1220.0 253111}\">General Practitioner</span></p><p><b>telecom</b>: ph: 0491579760, <a href=\"mailto:drbob@bobrestermedical.example.com\">drbob@bobrestermedical.example.com</a></p></div>"
      },
      "identifier" : [{
        "type" : {
          "coding" : [{
            "system" : "http://terminology.hl7.org/CodeSystem/v2-0203",
            "code" : "EI",
            "display" : "Employee number"
          }],
          "text" : "Employee Number"
        },
        "system" : "http://ns.electronichealth.net.au/id/hpio-scoped/service-provider-individual/1.0/8003621566684455",
        "value" : "BBC-GA-001",
        "assigner" : {
          "display" : "Bobregster Medical Center QLD"
        }
      }],
      "practitioner" : {
        "reference" : "urn:uuid:40a94071-8373-4d53-a788-63b79c75a3c1"
      },
      "organization" : {
        "reference" : "urn:uuid:744a02aa-0056-461e-bdf2-9f46eb0e524c"
      },
      "code" : [{
        "coding" : [{
          "system" : "http://snomed.info/sct",
          "code" : "62247001"
        },
        {
          "system" : "http://www.abs.gov.au/ausstats/abs@.nsf/mf/1220.0",
          "code" : "253111"
        }],
        "text" : "General Practitioner"
      }],
      "telecom" : [{
        "system" : "phone",
        "value" : "0491579760"
      },
      {
        "system" : "email",
        "value" : "drbob@bobrestermedical.example.com"
      }]
    }
  },
  {
    "fullUrl" : "urn:uuid:40a94071-8373-4d53-a788-63b79c75a3c1",
    "resource" : {
      "resourceType" : "Practitioner",
      "id" : "40a94071-8373-4d53-a788-63b79c75a3c1",
      "meta" : {
        "profile" : ["http://hl7.org.au.draft/fhir/aups/StructureDefinition/au-ps-practitioner"]
      },
      "text" : {
        "status" : "generated",
        "div" : "<div xmlns=\"http://www.w3.org/1999/xhtml\"><a name=\"Practitioner_40a94071-8373-4d53-a788-63b79c75a3c1\"> </a><p class=\"res-header-id\"><b>Generated Narrative: Practitioner 40a94071-8373-4d53-a788-63b79c75a3c1</b></p><a name=\"40a94071-8373-4d53-a788-63b79c75a3c1\"> </a><a name=\"hc40a94071-8373-4d53-a788-63b79c75a3c1\"> </a><a name=\"40a94071-8373-4d53-a788-63b79c75a3c1-en-AU\"> </a><p><b>identifier</b>: Medicare Provider Number/1234561A, Prescriber Number/553255</p><p><b>name</b>: Bob Bobrester </p><p><b>telecom</b>: <a href=\"mailto:drbob@bobrestermedical.example.com\">drbob@bobrestermedical.example.com</a></p><h3>Qualifications</h3><table class=\"grid\"><tr><td style=\"display: none\">-</td><td><b>Extension</b></td><td><b>Identifier</b></td><td><b>Code</b></td><td><b>Period</b></td><td><b>Issuer</b></td></tr><tr><td style=\"display: none\">*</td><td/><td>Ahpra Registration Number/MED0002137855</td><td><span title=\"Codes:{http://terminology.hl7.org.au/CodeSystem/v2-0360 AUAHPRAProfession}\">Medical Practitioner</span></td><td>1996-02-08 --&gt; (ongoing)</td><td>Australian Health Practitioner Regulation Agency</td></tr></table></div>"
      },
      "identifier" : [{
        "type" : {
          "coding" : [{
            "system" : "http://terminology.hl7.org.au/CodeSystem/v2-0203",
            "code" : "UPIN"
          }],
          "text" : "Medicare Provider Number"
        },
        "system" : "http://ns.electronichealth.net.au/id/medicare-provider-number",
        "value" : "1234561A"
      },
      {
        "type" : {
          "coding" : [{
            "system" : "http://terminology.hl7.org.au/CodeSystem/v2-0203",
            "code" : "PRES",
            "display" : "Prescriber Number"
          }],
          "text" : "Prescriber Number"
        },
        "system" : "http://ns.electronichealth.net.au/id/medicare-prescriber-number",
        "value" : "553255"
      }],
      "name" : [{
        "family" : "Bobrester",
        "given" : ["Bob"],
        "prefix" : ["Dr."]
      }],
      "telecom" : [{
        "system" : "email",
        "value" : "drbob@bobrestermedical.example.com"
      }],
      "qualification" : [{
        "extension" : [{
          "url" : "http://hl7.org.au/fhir/StructureDefinition/ahpraprofession-details",
          "extension" : [{
            "url" : "ahpraProfession",
            "valueCodeableConcept" : {
              "text" : "Medical Practitioner"
            }
          }]
        }],
        "identifier" : [{
          "type" : {
            "coding" : [{
              "system" : "http://terminology.hl7.org.au/CodeSystem/v2-0203",
              "code" : "AHPRA",
              "display" : "Australian Health Practitioner Regulation Agency Registration Number"
            }],
            "text" : "Ahpra Registration Number"
          },
          "system" : "http://hl7.org.au/id/ahpra-registration-number",
          "value" : "MED0002137855"
        }],
        "code" : {
          "coding" : [{
            "system" : "http://terminology.hl7.org.au/CodeSystem/v2-0360",
            "code" : "AUAHPRAProfession"
          }],
          "text" : "Medical Practitioner"
        },
        "period" : {
          "start" : "1996-02-08"
        },
        "issuer" : {
          "display" : "Australian Health Practitioner Regulation Agency"
        }
      }]
    }
  },
  {
    "fullUrl" : "urn:uuid:744a02aa-0056-461e-bdf2-9f46eb0e524c",
    "resource" : {
      "resourceType" : "Organization",
      "id" : "744a02aa-0056-461e-bdf2-9f46eb0e524c",
      "meta" : {
        "profile" : ["http://hl7.org.au.draft/fhir/aups/StructureDefinition/au-ps-organization"]
      },
      "text" : {
        "status" : "generated",
        "div" : "<div xmlns=\"http://www.w3.org/1999/xhtml\"><a name=\"Organization_744a02aa-0056-461e-bdf2-9f46eb0e524c\"> </a><p class=\"res-header-id\"><b>Generated Narrative: Organization 744a02aa-0056-461e-bdf2-9f46eb0e524c</b></p><a name=\"744a02aa-0056-461e-bdf2-9f46eb0e524c\"> </a><a name=\"hc744a02aa-0056-461e-bdf2-9f46eb0e524c\"> </a><a name=\"744a02aa-0056-461e-bdf2-9f46eb0e524c-en-AU\"> </a><p><b>identifier</b>: HPI-O/8003621566684455</p><p><b>type</b>: <span title=\"Codes:{http://snomed.info/sct 288565001}\">Medical Center</span></p><p><b>name</b>: Bobrester Medical Center</p><p><b>telecom</b>: <a href=\"mailto:info@bobrestermedical.example.com\">info@bobrestermedical.example.com</a>, ph: (07) 5550 2427(Work)</p><p><b>address</b>: 87 Western Esp Tindal RAAF QLD 4655 AU </p></div>"
      },
      "identifier" : [{
        "type" : {
          "coding" : [{
            "system" : "http://terminology.hl7.org.au/CodeSystem/v2-0203",
            "code" : "NOI"
          }],
          "text" : "HPI-O"
        },
        "system" : "http://ns.electronichealth.net.au/id/hi/hpio/1.0",
        "value" : "8003621566684455"
      }],
      "type" : [{
        "coding" : [{
          "system" : "http://snomed.info/sct",
          "code" : "288565001",
          "display" : "Medical centre"
        }],
        "text" : "Medical Center"
      }],
      "name" : "Bobrester Medical Center",
      "telecom" : [{
        "system" : "email",
        "value" : "info@bobrestermedical.example.com",
        "use" : "work"
      },
      {
        "system" : "phone",
        "value" : "(07) 5550 2427",
        "use" : "work"
      }],
      "address" : [{
        "line" : ["87 Western Esp"],
        "city" : "Tindal RAAF",
        "state" : "QLD",
        "postalCode" : "4655",
        "country" : "AU"
      }]
    }
  },
  {
    "fullUrl" : "urn:uuid:8677944d-0fb2-4d31-93eb-0e854a95bb53",
    "resource" : {
      "resourceType" : "MedicationRequest",
      "id" : "8677944d-0fb2-4d31-93eb-0e854a95bb53",
      "meta" : {
        "profile" : ["http://hl7.org.au.draft/fhir/aups/StructureDefinition/au-ps-medicationrequest"]
      },
      "text" : {
        "status" : "generated",
        "div" : "<div xmlns=\"http://www.w3.org/1999/xhtml\"><a name=\"MedicationRequest_8677944d-0fb2-4d31-93eb-0e854a95bb53\"> </a><p class=\"res-header-id\"><b>Generated Narrative: MedicationRequest 8677944d-0fb2-4d31-93eb-0e854a95bb53</b></p><a name=\"8677944d-0fb2-4d31-93eb-0e854a95bb53\"> </a><a name=\"hc8677944d-0fb2-4d31-93eb-0e854a95bb53\"> </a><a name=\"8677944d-0fb2-4d31-93eb-0e854a95bb53-en-AU\"> </a><p><b>status</b>: Active</p><p><b>intent</b>: Order</p><p><b>medication</b>: <a href=\"#hc8677944d-0fb2-4d31-93eb-0e854a95bb53/med1\">Medication Reaptan 10 mg/10 mg (perindopril arginine/amlodipine) tablet, 10</a></p><p><b>subject</b>: Li Wang</p><p><b>authoredOn</b>: 2018-07-15</p><p><b>requester</b>: Surgeon David</p><hr/><blockquote><p class=\"res-header-id\"><b>Generated Narrative: Medication  #med1</b></p><a name=\"8677944d-0fb2-4d31-93eb-0e854a95bb53/med1\"> </a><a name=\"hc8677944d-0fb2-4d31-93eb-0e854a95bb53/med1\"> </a><a name=\"8677944d-0fb2-4d31-93eb-0e854a95bb53/med1-en-AU\"> </a><p><b>code</b>: <span title=\"Codes:{http://snomed.info/sct 926213011000036100}\">Reaptan 10 mg/10 mg (perindopril arginine/amlodipine) tablet, 10</span></p></blockquote></div>"
      },
      "contained" : [{
        "resourceType" : "Medication",
        "id" : "med1",
        "code" : {
          "coding" : [{
            "system" : "http://snomed.info/sct",
            "code" : "926213011000036100"
          }],
          "text" : "Reaptan 10 mg/10 mg (perindopril arginine/amlodipine) tablet, 10"
        }
      }],
      "status" : "active",
      "intent" : "order",
      "medicationReference" : {
        "reference" : "#med1"
      },
      "subject" : {
        "display" : "Li Wang",
        "reference" : "urn:uuid:91d07c7b-8005-45fa-b7a5-52b2b5b99b04"
      },
      "authoredOn" : "2018-07-15",
      "requester" : {
        "display" : "Surgeon David"
      }
    }
  },
  {
    "fullUrl" : "urn:uuid:b021320c-bc5e-4ae8-b9fc-1ed2d876e889",
    "resource" : {
      "resourceType" : "Condition",
      "id" : "b021320c-bc5e-4ae8-b9fc-1ed2d876e889",
      "meta" : {
        "profile" : ["http://hl7.org.au.draft/fhir/aups/StructureDefinition/au-ps-condition"]
      },
      "text" : {
        "status" : "generated",
        "div" : "<div xmlns=\"http://www.w3.org/1999/xhtml\"><a name=\"Condition_b021320c-bc5e-4ae8-b9fc-1ed2d876e889\"> </a><p class=\"res-header-id\"><b>Generated Narrative: Condition b021320c-bc5e-4ae8-b9fc-1ed2d876e889</b></p><a name=\"b021320c-bc5e-4ae8-b9fc-1ed2d876e889\"> </a><a name=\"hcb021320c-bc5e-4ae8-b9fc-1ed2d876e889\"> </a><a name=\"b021320c-bc5e-4ae8-b9fc-1ed2d876e889-en-AU\"> </a><p><b>clinicalStatus</b>: <span title=\"Codes:{http://terminology.hl7.org/CodeSystem/condition-clinical active}\">Active</span></p><p><b>verificationStatus</b>: <span title=\"Codes:{http://terminology.hl7.org/CodeSystem/condition-ver-status confirmed}\">Confirmed</span></p><p><b>category</b>: <span title=\"Codes:{http://terminology.hl7.org/CodeSystem/condition-category problem-list-item}\">Problem</span></p><p><b>severity</b>: <span title=\"Codes:{http://snomed.info/sct 24484000}\">Severe</span></p><p><b>code</b>: <span title=\"Codes:{http://snomed.info/sct 709044004}\">Chronic kidney disease</span></p><p><b>subject</b>: Identifier: DVA Number/QX827261</p></div>"
      },
      "clinicalStatus" : {
        "coding" : [{
          "system" : "http://terminology.hl7.org/CodeSystem/condition-clinical",
          "code" : "active",
          "display" : "Active"
        }],
        "text" : "Active"
      },
      "verificationStatus" : {
        "coding" : [{
          "system" : "http://terminology.hl7.org/CodeSystem/condition-ver-status",
          "code" : "confirmed"
        }]
      },
      "category" : [{
        "coding" : [{
          "system" : "http://terminology.hl7.org/CodeSystem/condition-category",
          "code" : "problem-list-item",
          "display" : "Problem List Item"
        }],
        "text" : "Problem"
      }],
      "severity" : {
        "coding" : [{
          "system" : "http://snomed.info/sct",
          "code" : "24484000",
          "display" : "Severe"
        }]
      },
      "code" : {
        "coding" : [{
          "system" : "http://snomed.info/sct",
          "code" : "709044004",
          "display" : "Chronic kidney disease"
        }]
      },
      "subject" : {
        "identifier" : {
          "type" : {
            "coding" : [{
              "system" : "http://terminology.hl7.org.au/CodeSystem/v2-0203",
              "code" : "DVAU",
              "display" : "DVA Number"
            }],
            "text" : "DVA Number"
          },
          "system" : "http://ns.electronichealth.net.au/id/dva",
          "value" : "QX827261"
        },
        "reference" : "urn:uuid:91d07c7b-8005-45fa-b7a5-52b2b5b99b04"
      }
    }
  },
  {
    "fullUrl" : "urn:uuid:3aa565a7-827c-4243-9c0b-d138e9f607a8",
    "resource" : {
      "resourceType" : "Immunization",
      "id" : "3aa565a7-827c-4243-9c0b-d138e9f607a8",
      "meta" : {
        "profile" : ["http://hl7.org.au.draft/fhir/aups/StructureDefinition/au-ps-immunization"]
      },
      "text" : {
        "status" : "generated",
        "div" : "<div xmlns=\"http://www.w3.org/1999/xhtml\"><a name=\"Immunization_3aa565a7-827c-4243-9c0b-d138e9f607a8\"> </a><p class=\"res-header-id\"><b>Generated Narrative: Immunization 3aa565a7-827c-4243-9c0b-d138e9f607a8</b></p><a name=\"3aa565a7-827c-4243-9c0b-d138e9f607a8\"> </a><a name=\"hc3aa565a7-827c-4243-9c0b-d138e9f607a8\"> </a><a name=\"3aa565a7-827c-4243-9c0b-d138e9f607a8-en-AU\"> </a><p><b>status</b>: Completed</p><p><b>vaccineCode</b>: <span title=\"Codes:{https://www.humanservices.gov.au/organisations/health-professionals/enablers/air-vaccine-code-formats COMIRN}, {http://snomed.info/sct 1525011000168107}\">Pfizer Comirnaty</span></p><p><b>patient</b>: Identifier: Medicare Number/6951449677</p><p><b>occurrence</b>: 2021-06-17</p><p><b>primarySource</b>: true</p></div>"
      },
      "status" : "completed",
      "vaccineCode" : {
        "coding" : [{
          "system" : "https://www.humanservices.gov.au/organisations/health-professionals/enablers/air-vaccine-code-formats",
          "code" : "COMIRN"
        },
        {
          "system" : "http://snomed.info/sct",
          "code" : "1525011000168107",
          "display" : "Comirnaty"
        }],
        "text" : "Pfizer Comirnaty"
      },
      "patient" : {
        "identifier" : {
          "type" : {
            "coding" : [{
              "system" : "http://terminology.hl7.org/CodeSystem/v2-0203",
              "code" : "MC"
            }],
            "text" : "Medicare Number"
          },
          "system" : "http://ns.electronichealth.net.au/id/medicare-number",
          "value" : "6951449677"
        },
        "reference" : "urn:uuid:91d07c7b-8005-45fa-b7a5-52b2b5b99b04"
      },
      "occurrenceDateTime" : "2021-06-17",
      "primarySource" : true
    }
  },
  {
    "fullUrl" : "urn:uuid:7b1ac102-82f1-4424-8be0-fe0f35987f4e",
    "resource" : {
      "resourceType" : "AllergyIntolerance",
      "id" : "7b1ac102-82f1-4424-8be0-fe0f35987f4e",
      "meta" : {
        "profile" : ["http://hl7.org.au.draft/fhir/aups/StructureDefinition/au-ps-allergyintolerance"]
      },
      "text" : {
        "status" : "generated",
        "div" : "<div xmlns=\"http://www.w3.org/1999/xhtml\"><a name=\"AllergyIntolerance_7b1ac102-82f1-4424-8be0-fe0f35987f4e\"> </a><p class=\"res-header-id\"><b>Generated Narrative: AllergyIntolerance 7b1ac102-82f1-4424-8be0-fe0f35987f4e</b></p><a name=\"7b1ac102-82f1-4424-8be0-fe0f35987f4e\"> </a><a name=\"hc7b1ac102-82f1-4424-8be0-fe0f35987f4e\"> </a><a name=\"7b1ac102-82f1-4424-8be0-fe0f35987f4e-en-AU\"> </a><p><b>clinicalStatus</b>: <span title=\"Codes:{http://terminology.hl7.org/CodeSystem/allergyintolerance-clinical active}\">Active</span></p><p><b>verificationStatus</b>: <span title=\"Codes:{http://terminology.hl7.org/CodeSystem/allergyintolerance-verification confirmed}\">Confirmed</span></p><p><b>code</b>: <span title=\"Codes:{http://snomed.info/sct 782415009}\">Intolerance to lactose</span></p><p><b>patient</b>: Identifier: IHI/8003608333647261</p></div>"
      },
      "clinicalStatus" : {
        "coding" : [{
          "system" : "http://terminology.hl7.org/CodeSystem/allergyintolerance-clinical",
          "code" : "active",
          "display" : "Active"
        }]
      },
      "verificationStatus" : {
        "coding" : [{
          "system" : "http://terminology.hl7.org/CodeSystem/allergyintolerance-verification",
          "code" : "confirmed",
          "display" : "Confirmed"
        }]
      },
      "code" : {
        "coding" : [{
          "system" : "http://snomed.info/sct",
          "code" : "782415009",
          "display" : "Intolerance to lactose"
        }]
      },
      "patient" : {
        "identifier" : {
          "extension" : [{
            "url" : "http://hl7.org.au/fhir/StructureDefinition/ihi-status",
            "valueCoding" : {
              "system" : "https://healthterminologies.gov.au/fhir/CodeSystem/ihi-status-1",
              "code" : "active"
            }
          },
          {
            "url" : "http://hl7.org.au/fhir/StructureDefinition/ihi-record-status",
            "valueCoding" : {
              "system" : "https://healthterminologies.gov.au/fhir/CodeSystem/ihi-record-status-1",
              "code" : "verified",
              "display" : "verified"
            }
          }],
          "type" : {
            "coding" : [{
              "system" : "http://terminology.hl7.org/CodeSystem/v2-0203",
              "code" : "NI"
            }],
            "text" : "IHI"
          },
          "system" : "http://ns.electronichealth.net.au/id/hi/ihi/1.0",
          "value" : "8003608333647261"
        },
        "reference" : "urn:uuid:91d07c7b-8005-45fa-b7a5-52b2b5b99b04"
      }
    }
  }]
}