{
	"resourceType": "Bundle",
	"meta": {
		"profile": [
			"http://hl7.org.au/fhir/ps/StructureDefinition/au-ps-bundle"
		]
	},
	"identifier": {
		"system": "urn:ietf:rfc:4122",
		"value": "2973b56e-c8d2-4436-944b-20e20e29dad8"
	},
	"type": "document",
	"timestamp": "2025-02-17T12:26:44.484+11:00",
	"entry": [
		{
			"fullUrl": "urn:uuid:c1513c44-c4ea-4859-805c-ff031126d368",
			"resource": {
				"resourceType": "Composition",
				"meta": {
					"profile": [
						"http://hl7.org.au.draft/fhir/aups/StructureDefinition/au-ps-composition"
					]
				},
				"text": {
					"status": "generated",
					"div": "<div xmlns=\"http://www.w3.org/1999/xhtml\"><h1>Australian Patient Summary Document</h1></div>"
				},
				"status": "final",
				"type": {
					"coding": [
						{
							"system": "http://loinc.org",
							"code": "60591-5",
							"display": "Patient Summary Document"
						}
					]
				},
				"subject": {
					"reference": "http://localhost:8080/fhir/Patient/johnson-joyce"
				},
				"date": "2025-02-17T12:26:44.229+11:00",
				"author": [
					{
						"reference": "urn:uuid:56ba9400-fb12-402e-bf76-2cd1db8fd0b2"
					}
				],
				"title": "Patient Summary as of 02/17/2025",
				"confidentiality": "N",
				"section": [
					{
						"title": "Adverse reaction risk summary",
						"code": {
							"coding": [
								{
									"system": "http://loinc.org",
									"code": "48765-2",
									"display": "Adverse reaction risk summary"
								}
							]
						},
						"text": {
							"status": "generated",
							"div": "<div xmlns=\"http://www.w3.org/1999/xhtml\">TBD</div>"
						},
						"entry": [
							{
								"reference": "http://localhost:8080/fhir/AllergyIntolerance/7"
							}
						]
					},
					{
						"title": "Medication use statement",
						"code": {
							"coding": [
								{
									"system": "http://loinc.org",
									"code": "10160-0",
									"display": "Medication use statement"
								}
							]
						},
						"text": {
							"status": "generated",
							"div": "<div xmlns=\"http://www.w3.org/1999/xhtml\">TBD</div>"
						},
						"entry": [
							{
								"reference": "http://localhost:8080/fhir/MedicationStatement/8"
							},
							{
								"reference": "http://localhost:8080/fhir/MedicationStatement/9"
							},
							{
								"reference": "http://localhost:8080/fhir/MedicationStatement/10"
							},
							{
								"reference": "http://localhost:8080/fhir/MedicationStatement/11"
							}
						]
					},
					{
						"title": "Problem/Diagnosis summary",
						"code": {
							"coding": [
								{
									"system": "http://loinc.org",
									"code": "11450-4",
									"display": "Problem/Diagnosis summary"
								}
							]
						},
						"text": {
							"status": "generated",
							"div": "<div xmlns=\"http://www.w3.org/1999/xhtml\">TBD</div>"
						},
						"entry": [
							{
								"reference": "http://localhost:8080/fhir/Condition/2"
							},
							{
								"reference": "http://localhost:8080/fhir/Condition/3"
							},
							{
								"reference": "http://localhost:8080/fhir/Condition/4"
							},
							{
								"reference": "http://localhost:8080/fhir/Condition/5"
							},
							{
								"reference": "http://localhost:8080/fhir/Condition/6"
							}
						]
					},
					{
						"title": "Vaccination administered event",
						"code": {
							"coding": [
								{
									"system": "http://loinc.org",
									"code": "11369-6",
									"display": "Vaccination administered event"
								}
							]
						},
						"text": {
							"status": "generated",
							"div": "<div xmlns=\"http://www.w3.org/1999/xhtml\">TBD</div>"
						},
						"entry": [
							{
								"reference": "http://localhost:8080/fhir/Immunization/12"
							},
							{
								"reference": "http://localhost:8080/fhir/Immunization/13"
							},
							{
								"reference": "http://localhost:8080/fhir/Immunization/14"
							},
							{
								"reference": "http://localhost:8080/fhir/Immunization/15"
							},
							{
								"reference": "http://localhost:8080/fhir/Immunization/16"
							},
							{
								"reference": "http://localhost:8080/fhir/Immunization/17"
							}
						]
					},
					{
						"title": "Pregnancy status",
						"code": {
							"coding": [
								{
									"system": "http://loinc.org",
									"code": "82810-3",
									"display": "Pregnancy status"
								}
							]
						},
						"text": {
							"status": "generated",
							"div": "<div xmlns=\"http://www.w3.org/1999/xhtml\">TBD</div>"
						},
						"entry": [
							{
								"reference": "http://localhost:8080/fhir/Observation/18"
							}
						]
					}
				]
			}
		},
		{
			"fullUrl": "http://localhost:8080/fhir/Patient/johnson-joyce",
			"resource": {
				"resourceType": "Patient",
				"id": "johnson-joyce",
				"meta": {
					"versionId": "1",
					"lastUpdated": "2025-02-17T11:57:41.484+11:00",
					"source": "#AB0e0r2ffF9qgZCD",
					"profile": [
						"http://hl7.org.au/fhir/core/StructureDefinition/au-core-patient"
					]
				},
				"extension": [
					{
						"url": "http://hl7.org.au/fhir/StructureDefinition/indigenous-status",
						"valueCoding": {
							"system": "https://healthterminologies.gov.au/fhir/CodeSystem/australian-indigenous-status-1",
							"code": "4",
							"display": "Neither Aboriginal nor Torres Strait Islander origin"
						}
					}
				],
				"identifier": [
					{
						"extension": [
							{
								"url": "http://hl7.org.au/fhir/StructureDefinition/ihi-status",
								"valueCoding": {
									"system": "https://healthterminologies.gov.au/fhir/CodeSystem/ihi-status-1",
									"code": "active"
								}
							},
							{
								"url": "http://hl7.org.au/fhir/StructureDefinition/ihi-record-status",
								"valueCoding": {
									"system": "https://healthterminologies.gov.au/fhir/CodeSystem/ihi-record-status-1",
									"code": "verified",
									"display": "verified"
								}
							}
						],
						"type": {
							"coding": [
								{
									"system": "http://terminology.hl7.org/CodeSystem/v2-0203",
									"code": "NI"
								}
							],
							"text": "IHI"
						},
						"system": "http://ns.electronichealth.net.au/id/hi/ihi/1.0",
						"value": "8003608500314679"
					},
					{
						"type": {
							"coding": [
								{
									"system": "http://terminology.hl7.org/CodeSystem/v2-0203",
									"code": "MC"
								}
							],
							"text": "Medicare Number"
						},
						"system": "http://ns.electronichealth.net.au/id/medicare-number",
						"value": "29545401611"
					}
				],
				"name": [
					{
						"use": "official",
						"family": "JOHNSON",
						"given": [
							"Joyce"
						]
					}
				],
				"telecom": [
					{
						"system": "phone",
						"value": "0270108012",
						"use": "home"
					},
					{
						"system": "phone",
						"value": "0491571804",
						"use": "mobile"
					},
					{
						"system": "phone",
						"value": "0270109558",
						"use": "work"
					}
				],
				"gender": "female",
				"birthDate": "1985-02-06",
				"address": [
					{
						"line": [
							"139 River Lane"
						],
						"city": "Palmvale",
						"state": "NSW",
						"postalCode": "2484",
						"country": "AU"
					}
				]
			}
		},
		{
			"fullUrl": "http://localhost:8080/fhir/AllergyIntolerance/7",
			"resource": {
				"resourceType": "AllergyIntolerance",
				"id": "7",
				"meta": {
					"versionId": "1",
					"lastUpdated": "2025-02-17T11:58:24.702+11:00",
					"source": "#EAYJ5xny7JgigC8S",
					"profile": [
						"http://hl7.org.au/fhir/core/StructureDefinition/au-core-allergyintolerance"
					]
				},
				"clinicalStatus": {
					"coding": [
						{
							"system": "http://terminology.hl7.org/CodeSystem/allergyintolerance-clinical",
							"code": "active"
						}
					]
				},
				"code": {
					"coding": [
						{
							"system": "http://snomed.info/sct",
							"code": "716186003",
							"display": "No known allergy"
						}
					],
					"text": "No known allergy"
				},
				"patient": {
					"reference": "Patient/johnson-joyce",
					"type": "Patient",
					"display": "Joyce JOHNSON"
				}
			}
		},
		{
			"fullUrl": "http://localhost:8080/fhir/MedicationStatement/8",
			"resource": {
				"resourceType": "MedicationStatement",
				"id": "8",
				"meta": {
					"versionId": "1",
					"lastUpdated": "2025-02-17T11:58:24.702+11:00",
					"source": "#EAYJ5xny7JgigC8S",
					"profile": [
						"http://hl7.org.au/fhir/StructureDefinition/au-medicationstatement"
					]
				},
				"contained": [
					{
						"resourceType": "Medication",
						"id": "medication",
						"meta": {
							"profile": [
								"http://hl7.org.au/fhir/core/StructureDefinition/au-core-medication"
							]
						},
						"code": {
							"coding": [
								{
									"system": "http://snomed.info/sct",
									"code": "61571000168101",
									"display": "Elevit"
								}
							],
							"text": "Elevit"
						},
						"form": {
							"coding": [
								{
									"system": "http://snomed.info/sct",
									"code": "385055001",
									"display": "Tablet"
								}
							],
							"text": "Tablet"
						}
					}
				],
				"status": "completed",
				"medicationReference": {
					"reference": "#medication"
				},
				"subject": {
					"reference": "Patient/johnson-joyce",
					"type": "Patient",
					"display": "Joyce JOHNSON"
				},
				"dosage": [
					{
						"route": {
							"coding": [
								{
									"system": "http://snomed.info/sct",
									"code": "26643006",
									"display": "Oral route"
								}
							],
							"text": "Oral route"
						},
						"doseAndRate": [
							{
								"doseQuantity": {
									"value": 1
								}
							}
						]
					}
				]
			}
		},
		{
			"fullUrl": "http://localhost:8080/fhir/MedicationStatement/9",
			"resource": {
				"resourceType": "MedicationStatement",
				"id": "9",
				"meta": {
					"versionId": "1",
					"lastUpdated": "2025-02-17T11:58:24.702+11:00",
					"source": "#EAYJ5xny7JgigC8S",
					"profile": [
						"http://hl7.org.au/fhir/StructureDefinition/au-medicationstatement"
					]
				},
				"contained": [
					{
						"resourceType": "Medication",
						"id": "medication",
						"meta": {
							"profile": [
								"http://hl7.org.au/fhir/core/StructureDefinition/au-core-medication"
							]
						},
						"code": {
							"coding": [
								{
									"system": "http://snomed.info/sct",
									"code": "10931000168100",
									"display": "Humulin NPH Isophane"
								}
							],
							"text": "Humulin NPH Isophane"
						},
						"form": {
							"coding": [
								{
									"system": "http://snomed.info/sct",
									"code": "129011000036109",
									"display": "Injection"
								}
							],
							"text": "Injection"
						}
					}
				],
				"status": "completed",
				"medicationReference": {
					"reference": "#medication"
				},
				"subject": {
					"reference": "Patient/johnson-joyce",
					"type": "Patient",
					"display": "Joyce JOHNSON"
				},
				"note": [
					{
						"text": "*Tooling note: need to add IU to units; also change dose timing to AM and PM"
					}
				],
				"dosage": [
					{
						"route": {
							"coding": [
								{
									"system": "http://snomed.info/sct",
									"code": "34206005",
									"display": "Subcutaneous route"
								}
							],
							"text": "Subcutaneous route"
						},
						"doseAndRate": [
							{
								"doseQuantity": {
									"value": 10
								}
							}
						]
					}
				]
			}
		},
		{
			"fullUrl": "http://localhost:8080/fhir/MedicationStatement/10",
			"resource": {
				"resourceType": "MedicationStatement",
				"id": "10",
				"meta": {
					"versionId": "1",
					"lastUpdated": "2025-02-17T11:58:24.702+11:00",
					"source": "#EAYJ5xny7JgigC8S",
					"profile": [
						"http://hl7.org.au/fhir/StructureDefinition/au-medicationstatement"
					]
				},
				"contained": [
					{
						"resourceType": "Medication",
						"id": "medication",
						"meta": {
							"profile": [
								"http://hl7.org.au/fhir/core/StructureDefinition/au-core-medication"
							]
						},
						"code": {
							"coding": [
								{
									"system": "http://snomed.info/sct",
									"code": "17171000168104",
									"display": "Humulin R Regular"
								}
							],
							"text": "Humulin R Regular"
						},
						"form": {
							"coding": [
								{
									"system": "http://snomed.info/sct",
									"code": "129011000036109",
									"display": "Injection"
								}
							],
							"text": "Injection"
						}
					}
				],
				"status": "completed",
				"medicationReference": {
					"reference": "#medication"
				},
				"subject": {
					"reference": "http://localhost:8080/fhir/Patient/johnson-joyce",
					"type": "Patient",
					"display": "Joyce JOHNSON"
				},
				"note": [
					{
						"text": "*Tooling note: need to add IU to units; also change dose timing to before each meal; change dose timing value set"
					}
				],
				"dosage": [
					{
						"route": {
							"coding": [
								{
									"system": "http://snomed.info/sct",
									"code": "34206005",
									"display": "Subcutaneous route"
								}
							],
							"text": "Subcutaneous route"
						},
						"doseAndRate": [
							{
								"doseQuantity": {
									"value": 5
								}
							}
						]
					}
				]
			}
		},
		{
			"fullUrl": "http://localhost:8080/fhir/MedicationStatement/11",
			"resource": {
				"resourceType": "MedicationStatement",
				"id": "11",
				"meta": {
					"versionId": "1",
					"lastUpdated": "2025-02-17T11:58:24.702+11:00",
					"source": "#EAYJ5xny7JgigC8S",
					"profile": [
						"http://hl7.org.au/fhir/StructureDefinition/au-medicationstatement"
					]
				},
				"contained": [
					{
						"resourceType": "Medication",
						"id": "medication",
						"meta": {
							"profile": [
								"http://hl7.org.au/fhir/core/StructureDefinition/au-core-medication"
							]
						},
						"code": {
							"coding": [
								{
									"system": "http://snomed.info/sct",
									"code": "372567009",
									"display": "Metformin"
								}
							],
							"text": "Metformin"
						},
						"form": {
							"coding": [
								{
									"system": "http://snomed.info/sct",
									"code": "385055001",
									"display": "Tablet"
								}
							],
							"text": "Tablet"
						}
					}
				],
				"status": "completed",
				"medicationReference": {
					"reference": "#medication"
				},
				"subject": {
					"reference": "http://localhost:8080/fhir/Patient/johnson-joyce",
					"type": "Patient",
					"display": "Joyce JOHNSON"
				},
				"dosage": [
					{
						"route": {
							"coding": [
								{
									"system": "http://snomed.info/sct",
									"code": "26643006",
									"display": "Oral route"
								}
							],
							"text": "Oral route"
						},
						"doseAndRate": [
							{
								"doseQuantity": {
									"value": 500,
									"unit": "mg",
									"system": "http://unitsofmeasure.org",
									"code": "mg"
								}
							}
						]
					}
				]
			}
		},
		{
			"fullUrl": "http://localhost:8080/fhir/Condition/2",
			"resource": {
				"resourceType": "Condition",
				"id": "2",
				"meta": {
					"versionId": "1",
					"lastUpdated": "2025-02-17T11:58:24.702+11:00",
					"source": "#EAYJ5xny7JgigC8S",
					"profile": [
						"http://hl7.org.au/fhir/core/StructureDefinition/au-core-condition"
					]
				},
				"category": [
					{
						"coding": [
							{
								"system": "http://terminology.hl7.org/CodeSystem/condition-category",
								"code": "problem-list-item"
							}
						],
						"text": "Problem"
					}
				],
				"code": {
					"coding": [
						{
							"system": "http://snomed.info/sct",
							"code": "11687002",
							"display": "Gestational diabetes mellitus"
						}
					],
					"text": "Gestational diabetes mellitus"
				},
				"subject": {
					"reference": "http://localhost:8080/fhir/Patient/johnson-joyce",
					"type": "Patient",
					"display": "Joyce JOHNSON"
				},
				"note": [
					{
						"text": "Recent diagnosis, referring to Endo & Dietitian"
					}
				]
			}
		},
		{
			"fullUrl": "http://localhost:8080/fhir/Condition/3",
			"resource": {
				"resourceType": "Condition",
				"id": "3",
				"meta": {
					"versionId": "1",
					"lastUpdated": "2025-02-17T11:58:24.702+11:00",
					"source": "#EAYJ5xny7JgigC8S",
					"profile": [
						"http://hl7.org.au/fhir/core/StructureDefinition/au-core-condition"
					]
				},
				"category": [
					{
						"coding": [
							{
								"system": "http://terminology.hl7.org/CodeSystem/condition-category",
								"code": "problem-list-item"
							}
						],
						"text": "Problem"
					}
				],
				"code": {
					"coding": [
						{
							"system": "http://snomed.info/sct",
							"code": "271737000",
							"display": "Anaemia"
						}
					],
					"text": "Anaemia"
				},
				"subject": {
					"reference": "http://localhost:8080/fhir/Patient/johnson-joyce",
					"type": "Patient",
					"display": "Joyce JOHNSON"
				}
			}
		},
		{
			"fullUrl": "http://localhost:8080/fhir/Condition/4",
			"resource": {
				"resourceType": "Condition",
				"id": "4",
				"meta": {
					"versionId": "1",
					"lastUpdated": "2025-02-17T11:58:24.702+11:00",
					"source": "#EAYJ5xny7JgigC8S",
					"profile": [
						"http://hl7.org.au/fhir/core/StructureDefinition/au-core-condition"
					]
				},
				"category": [
					{
						"coding": [
							{
								"system": "http://terminology.hl7.org/CodeSystem/condition-category",
								"code": "problem-list-item"
							}
						],
						"text": "Problem"
					}
				],
				"code": {
					"coding": [
						{
							"system": "http://snomed.info/sct",
							"code": "54150009",
							"display": "Upper respiratory tract infection"
						}
					],
					"text": "Upper respiratory tract infection"
				},
				"subject": {
					"reference": "http://localhost:8080/fhir/Patient/johnson-joyce",
					"type": "Patient",
					"display": "Joyce JOHNSON"
				}
			}
		},
		{
			"fullUrl": "http://localhost:8080/fhir/Condition/5",
			"resource": {
				"resourceType": "Condition",
				"id": "5",
				"meta": {
					"versionId": "1",
					"lastUpdated": "2025-02-17T11:58:24.702+11:00",
					"source": "#EAYJ5xny7JgigC8S",
					"profile": [
						"http://hl7.org.au/fhir/core/StructureDefinition/au-core-condition"
					]
				},
				"category": [
					{
						"coding": [
							{
								"system": "http://terminology.hl7.org/CodeSystem/condition-category",
								"code": "problem-list-item"
							}
						],
						"text": "Problem"
					}
				],
				"code": {
					"coding": [
						{
							"system": "http://snomed.info/sct",
							"code": "77830003",
							"display": "Epidermal burn of multiple sites"
						}
					],
					"text": "Epidermal burn of multiple sites"
				},
				"bodySite": [
					{
						"coding": [
							{
								"system": "http://snomed.info/sct",
								"code": "35549004",
								"display": "Upper back structure"
							}
						],
						"text": "Upper back structure"
					}
				],
				"subject": {
					"reference": "http://localhost:8080/fhir/Patient/johnson-joyce",
					"type": "Patient",
					"display": "Joyce JOHNSON"
				},
				"note": [
					{
						"text": "Severe sunburn, upper shoulders and back"
					}
				]
			}
		},
		{
			"fullUrl": "http://localhost:8080/fhir/Condition/6",
			"resource": {
				"resourceType": "Condition",
				"id": "6",
				"meta": {
					"versionId": "1",
					"lastUpdated": "2025-02-17T11:58:24.702+11:00",
					"source": "#EAYJ5xny7JgigC8S",
					"profile": [
						"http://hl7.org.au/fhir/core/StructureDefinition/au-core-condition"
					]
				},
				"category": [
					{
						"coding": [
							{
								"system": "http://terminology.hl7.org/CodeSystem/condition-category",
								"code": "problem-list-item"
							}
						],
						"text": "Problem"
					}
				],
				"code": {
					"coding": [
						{
							"system": "http://snomed.info/sct",
							"code": "74400008",
							"display": "Appendicitis"
						}
					],
					"text": "Appendicitis"
				},
				"subject": {
					"reference": "Patient/johnson-joyce",
					"type": "Patient",
					"display": "Joyce JOHNSON"
				}
			}
		},
		{
			"fullUrl": "http://localhost:8080/fhir/Immunization/12",
			"resource": {
				"resourceType": "Immunization",
				"id": "12",
				"meta": {
					"versionId": "1",
					"lastUpdated": "2025-02-17T11:58:24.702+11:00",
					"source": "#EAYJ5xny7JgigC8S",
					"profile": [
						"http://hl7.org.au/fhir/core/StructureDefinition/au-core-immunization"
					]
				},
				"status": "completed",
				"vaccineCode": {
					"coding": [
						{
							"system": "http://snomed.info/sct",
							"version": "http://snomed.info/sct/32506021000036107/version/20250131",
							"code": "1789191000168109",
							"display": "Diphtheria + tetanus + pertussis 5 component adolescent/adult vaccine injection, 0.5 mL syringe"
						}
					],
					"text": "Diphtheria + tetanus + pertussis 5 component adolescent/adult vaccine injection, 0.5 mL syringe"
				},
				"patient": {
					"reference": "Patient/johnson-joyce",
					"type": "Patient",
					"display": "Joyce JOHNSON"
				},
				"occurrenceDateTime": "2024-10-05"
			}
		},
		{
			"fullUrl": "http://localhost:8080/fhir/Immunization/13",
			"resource": {
				"resourceType": "Immunization",
				"id": "13",
				"meta": {
					"versionId": "1",
					"lastUpdated": "2025-02-17T11:58:24.702+11:00",
					"source": "#EAYJ5xny7JgigC8S",
					"profile": [
						"http://hl7.org.au/fhir/core/StructureDefinition/au-core-immunization"
					]
				},
				"status": "completed",
				"vaccineCode": {
					"coding": [
						{
							"system": "http://snomed.info/sct",
							"version": "http://snomed.info/sct/32506021000036107/version/20250131",
							"code": "1731151000168108",
							"display": "Influenza quadrivalent vaccine 2024"
						}
					],
					"text": "Influenza quadrivalent vaccine 2024"
				},
				"patient": {
					"reference": "Patient/johnson-joyce",
					"type": "Patient",
					"display": "Joyce JOHNSON"
				},
				"occurrenceDateTime": "2024-05-05"
			}
		},
		{
			"fullUrl": "http://localhost:8080/fhir/Immunization/14",
			"resource": {
				"resourceType": "Immunization",
				"id": "14",
				"meta": {
					"versionId": "1",
					"lastUpdated": "2025-02-17T11:58:24.702+11:00",
					"source": "#EAYJ5xny7JgigC8S",
					"profile": [
						"http://hl7.org.au/fhir/core/StructureDefinition/au-core-immunization"
					]
				},
				"status": "completed",
				"vaccineCode": {
					"coding": [
						{
							"system": "http://snomed.info/sct",
							"version": "http://snomed.info/sct/32506021000036107/version/20250131",
							"code": "1653851000168105",
							"display": "Influenza quadrivalent vaccine 2023"
						}
					],
					"text": "Influenza quadrivalent vaccine 2023"
				},
				"patient": {
					"reference": "Patient/johnson-joyce",
					"type": "Patient",
					"display": "Joyce JOHNSON"
				},
				"occurrenceDateTime": "2023-05-15"
			}
		},
		{
			"fullUrl": "http://localhost:8080/fhir/Immunization/15",
			"resource": {
				"resourceType": "Immunization",
				"id": "15",
				"meta": {
					"versionId": "1",
					"lastUpdated": "2025-02-17T11:58:24.702+11:00",
					"source": "#EAYJ5xny7JgigC8S",
					"profile": [
						"http://hl7.org.au/fhir/core/StructureDefinition/au-core-immunization"
					]
				},
				"status": "completed",
				"vaccineCode": {
					"coding": [
						{
							"system": "http://snomed.info/sct",
							"version": "http://snomed.info/sct/32506021000036107/version/20250131",
							"code": "1632631000168108",
							"display": "Spikevax Bivalent Original/Omicron"
						}
					],
					"text": "Spikevax Bivalent Original/Omicron"
				},
				"patient": {
					"reference": "Patient/johnson-joyce",
					"type": "Patient",
					"display": "Joyce JOHNSON"
				},
				"occurrenceDateTime": "2023-05-15",
				"note": [
					{
						"text": "*tooling note - change to COVID-19 mRNA-1273 Vaccine (Moderna) injection, 0.5 mL syringe"
					}
				]
			}
		},
		{
			"fullUrl": "http://localhost:8080/fhir/Immunization/16",
			"resource": {
				"resourceType": "Immunization",
				"id": "16",
				"meta": {
					"versionId": "1",
					"lastUpdated": "2025-02-17T11:58:24.702+11:00",
					"source": "#EAYJ5xny7JgigC8S",
					"profile": [
						"http://hl7.org.au/fhir/core/StructureDefinition/au-core-immunization"
					]
				},
				"status": "completed",
				"vaccineCode": {
					"coding": [
						{
							"system": "http://snomed.info/sct",
							"version": "http://snomed.info/sct/32506021000036107/version/20250131",
							"code": "1602211000168109",
							"display": "Influenza quadrivalent vaccine 2022"
						}
					],
					"text": "Influenza quadrivalent vaccine 2022"
				},
				"patient": {
					"reference": "Patient/johnson-joyce",
					"type": "Patient",
					"display": "Joyce JOHNSON"
				},
				"occurrenceDateTime": "2022-06-01"
			}
		},
		{
			"fullUrl": "http://localhost:8080/fhir/Immunization/17",
			"resource": {
				"resourceType": "Immunization",
				"id": "17",
				"meta": {
					"versionId": "1",
					"lastUpdated": "2025-02-17T11:58:24.702+11:00",
					"source": "#EAYJ5xny7JgigC8S",
					"profile": [
						"http://hl7.org.au/fhir/core/StructureDefinition/au-core-immunization"
					]
				},
				"status": "completed",
				"vaccineCode": {
					"coding": [
						{
							"system": "http://snomed.info/sct",
							"version": "http://snomed.info/sct/32506021000036107/version/20250131",
							"code": "1525011000168107",
							"display": "Comirnaty"
						}
					],
					"text": "Comirnaty"
				},
				"patient": {
					"reference": "Patient/johnson-joyce",
					"type": "Patient",
					"display": "Joyce JOHNSON"
				},
				"occurrenceDateTime": "2022-02-02",
				"note": [
					{
						"text": "*tooling note - change to Covid vaccine - Pfizer"
					}
				]
			}
		},
		{
			"fullUrl": "http://localhost:8080/fhir/Observation/18",
			"resource": {
				"resourceType": "Observation",
				"id": "18",
				"meta": {
					"versionId": "1",
					"lastUpdated": "2025-02-17T12:20:57.481+11:00",
					"source": "#WGO9BMJz9pWEb9Kd",
					"profile": [
						"http://hl7.org.au/fhir/core/StructureDefinition/au-core-observation",
						"http://hl7.org.au/fhir/core/StructureDefinition/au-core-pregnancystatus"
					]
				},
				"status": "final",
				"category": [
					{
						"coding": [
							{
								"system": "http://terminology.hl7.org/CodeSystem/observation-category",
								"code": "social-history",
								"display": "Social History"
							}
						]
					}
				],
				"code": {
					"coding": [
						{
							"system": "http://loinc.org",
							"code": "82810-3",
							"display": "Pregnancy status"
						}
					]
				},
				"subject": {
					"reference": "Patient/johnson-joyce"
				},
				"effectiveDateTime": "2022-06-06T09:30:10+10:00",
				"valueCodeableConcept": {
					"coding": [
						{
							"system": "http://snomed.info/sct",
							"code": "77386006",
							"display": "Pregnant"
						},
						{
							"system": "http://loinc.org",
							"code": "LA15173-0",
							"display": "Pregnant"
						}
					],
					"text": "Pregnant"
				}
			}
		},
		{
			"fullUrl": "urn:uuid:56ba9400-fb12-402e-bf76-2cd1db8fd0b2",
			"resource": {
				"resourceType": "Device",
				"deviceName": [
					{
						"name": "AU Patient Summary generator",
						"type": "manufacturer-name"
					}
				]
			}
		}
	]
}