{
	"resourceType": "Bundle",
	"meta": {
		"profile": [
			"http://hl7.org.au/fhir/ps/StructureDefinition/au-ps-bundle"
		]
	},
	"identifier": {
		"system": "urn:ietf:rfc:4122",
		"value": "594f5ff3-133e-4cd9-816e-891f675ea864"
	},
	"type": "document",
	"timestamp": "2025-02-27T11:57:37.051+11:00",
	"entry": [
		{
			"fullUrl": "urn:uuid:9a57361b-6ef5-45ba-b491-c9588b4604e4",
			"resource": {
				"resourceType": "Composition",
				"meta": {
					"profile": [
						"http://hl7.org.au/fhir/ps/StructureDefinition/au-ps-composition"
					]
				},
				"text": {
					"status": "generated",
					"div": "<div xmlns=\"http://www.w3.org/1999/xhtml\"><h1>Australian Patient Summary Document</h1></div>"
				},
				"status": "final",
				"type": {
					"coding": [
						{
							"system": "http://loinc.org",
							"code": "60591-5",
							"display": "Patient summary Document"
						}
					]
				},
				"subject": {
					"reference": "urn:uuid:d1122188-f53f-417f-a84f-bc44479baa63"
				},
				"date": "2025-02-27T11:57:36.833+11:00",
				"author": [
					{
						"reference": "urn:uuid:39a9392b-31ed-494d-a789-a4aed5c81452"
					}
				],
				"title": "Patient Summary as of 27 Feb 2025",
				"confidentiality": "N",
				"event": [
					{
						"code": [
							{
								"coding": [
									{
										"system": "http://terminology.hl7.org/CodeSystem/v3-ActClass",
										"code": "PCPR"
									}
								]
							}
						],
						"period": {
							"end": "2025-02-27T11:57:36+11:00"
						}
					}
				],
				"section": [
					{
						"title": "Allergies and Intolerances",
						"code": {
							"coding": [
								{
									"system": "http://loinc.org",
									"code": "48765-2",
									"display": "Allergies and adverse reactions Document"
								}
							]
						},
						"text": {
							"status": "generated",
							"div": "<div xmlns=\"http://www.w3.org/1999/xhtml\">TBD</div>"
						},
						"entry": [
							{
								"reference": "urn:uuid:eaf0788a-8fdf-4e21-b302-e529f3bd9d5f"
							}
						]
					},
					{
						"title": "Medication List",
						"code": {
							"coding": [
								{
									"system": "http://loinc.org",
									"code": "10160-0",
									"display": "History of Medication use Narrative"
								}
							]
						},
						"text": {
							"status": "generated",
							"div": "<div xmlns=\"http://www.w3.org/1999/xhtml\">TBD</div>"
						},
						"entry": [
							{
								"reference": "urn:uuid:d4ca61a6-5b55-41ab-9b1a-fba0daefe94d"
							},
							{
								"reference": "urn:uuid:3f76e819-1f30-405d-b1ef-66c878b401c2"
							},
							{
								"reference": "urn:uuid:e96d8d8d-8ef2-436b-8d04-4d136a731398"
							},
							{
								"reference": "urn:uuid:96b7e47d-0487-4219-adbe-7c2dfb0b2deb"
							},
							{
								"reference": "urn:uuid:d7351a16-8df1-47a4-9129-2c2d6c2238ec"
							},
							{
								"reference": "urn:uuid:fbc14baf-d7bf-4fa0-9035-f8e4a73986d0"
							},
							{
								"reference": "urn:uuid:cefeac7e-cf0c-4c14-917d-2a526516c3d1"
							}
						]
					},
					{
						"title": "Problem list",
						"code": {
							"coding": [
								{
									"system": "http://loinc.org",
									"code": "11450-4",
									"display": "Problem list Reported"
								}
							]
						},
						"text": {
							"status": "generated",
							"div": "<div xmlns=\"http://www.w3.org/1999/xhtml\">TBD</div>"
						},
						"entry": [
							{
								"reference": "urn:uuid:96013c59-2a84-4e89-9aa4-96d04d367466"
							},
							{
								"reference": "urn:uuid:8714f907-ddf9-4f21-9ea9-663e4ad0f99c"
							},
							{
								"reference": "urn:uuid:bea49472-f812-4aa0-ad52-fb90fad2b0d1"
							},
							{
								"reference": "urn:uuid:55e4f3ea-ed3c-4cef-badd-f582254a97dd"
							},
							{
								"reference": "urn:uuid:604a5173-1cf4-4cf4-82a2-13b610ecc593"
							}
						]
					},
					{
						"title": "History of Immunizations",
						"code": {
							"coding": [
								{
									"system": "http://loinc.org",
									"code": "11369-6",
									"display": "History of Immunization Narrative"
								}
							]
						},
						"text": {
							"status": "generated",
							"div": "<div xmlns=\"http://www.w3.org/1999/xhtml\">TBD</div>"
						},
						"entry": [
							{
								"reference": "urn:uuid:825a781b-e083-4351-a3d9-adf56f65d7e9"
							},
							{
								"reference": "urn:uuid:1e0d5691-c20c-4e14-9261-20a1575ab065"
							},
							{
								"reference": "urn:uuid:0d0d8c79-7f2f-4586-8b2e-f1a1942fe3ed"
							}
						]
					},
					{
						"title": "History of Past Illness",
						"code": {
							"coding": [
								{
									"system": "http://loinc.org",
									"code": "11348-0",
									"display": "History of Past illness Narrative"
								}
							]
						},
						"text": {
							"status": "generated",
							"div": "<div xmlns=\"http://www.w3.org/1999/xhtml\">TBD</div>"
						},
						"entry": [
							{
								"reference": "urn:uuid:55e4f3ea-ed3c-4cef-badd-f582254a97dd"
							}
						]
					}
				]
			}
		},
		{
			"fullUrl": "urn:uuid:d1122188-f53f-417f-a84f-bc44479baa63",
			"resource": {
				"resourceType": "Patient",
				"meta": {
					"versionId": "1",
					"lastUpdated": "2025-02-25T11:17:03.285+11:00",
					"source": "#xn0PgjgMQdX7rws7",
					"profile": [
						"http://hl7.org.au/fhir/core/StructureDefinition/au-core-patient",
						"http://hl7.org.au/fhir/ps/StructureDefinition/au-ps-patient"
					]
				},
				"extension": [
					{
						"url": "http://hl7.org.au/fhir/StructureDefinition/indigenous-status",
						"valueCoding": {
							"system": "https://healthterminologies.gov.au/fhir/CodeSystem/australian-indigenous-status-1",
							"code": "4",
							"display": "Neither Aboriginal nor Torres Strait Islander origin"
						}
					}
				],
				"identifier": [
					{
						"extension": [
							{
								"url": "http://hl7.org.au/fhir/StructureDefinition/ihi-status",
								"valueCoding": {
									"system": "https://healthterminologies.gov.au/fhir/CodeSystem/ihi-status-1",
									"code": "active"
								}
							},
							{
								"url": "http://hl7.org.au/fhir/StructureDefinition/ihi-record-status",
								"valueCoding": {
									"system": "https://healthterminologies.gov.au/fhir/CodeSystem/ihi-record-status-1",
									"code": "verified",
									"display": "verified"
								}
							}
						],
						"type": {
							"coding": [
								{
									"system": "http://terminology.hl7.org/CodeSystem/v2-0203",
									"code": "NI"
								}
							],
							"text": "IHI"
						},
						"system": "http://ns.electronichealth.net.au/id/hi/ihi/1.0",
						"value": "8003608166980417"
					},
					{
						"type": {
							"coding": [
								{
									"system": "http://terminology.hl7.org/CodeSystem/v2-0203",
									"code": "MC"
								}
							],
							"text": "Medicare Number"
						},
						"system": "http://ns.electronichealth.net.au/id/medicare-number",
						"value": "29545410411"
					}
				],
				"name": [
					{
						"use": "official",
						"family": "BANKS",
						"given": [
							"Jeramy",
							"EZRA"
						]
					}
				],
				"telecom": [
					{
						"system": "phone",
						"value": "0270107520",
						"use": "home"
					},
					{
						"system": "phone",
						"value": "0491574118",
						"use": "mobile"
					},
					{
						"system": "phone",
						"value": "0270101153",
						"use": "work"
					}
				],
				"gender": "male",
				"birthDate": "1971-05-14",
				"address": [
					{
						"line": [
							"50 Sebastien St"
						],
						"city": "Minjary",
						"state": "NSW",
						"postalCode": "2720",
						"country": "AU"
					}
				]
			}
		},
		{
			"fullUrl": "urn:uuid:eaf0788a-8fdf-4e21-b302-e529f3bd9d5f",
			"resource": {
				"resourceType": "AllergyIntolerance",
				"meta": {
					"versionId": "1",
					"lastUpdated": "2025-02-25T11:39:15.709+11:00",
					"source": "#T4n4aPVAD0o1q6ha",
					"profile": [
						"http://hl7.org.au/fhir/core/StructureDefinition/au-core-allergyintolerance",
						"http://hl7.org.au/fhir/ps/StructureDefinition/au-ps-allergyintolerance"
					]
				},
				"clinicalStatus": {
					"coding": [
						{
							"system": "http://terminology.hl7.org/CodeSystem/allergyintolerance-clinical",
							"code": "active"
						}
					]
				},
				"code": {
					"coding": [
						{
							"system": "http://snomed.info/sct",
							"code": "716186003",
							"display": "No known allergy"
						}
					],
					"text": "No known allergy"
				},
				"patient": {
					"reference": "urn:uuid:d1122188-f53f-417f-a84f-bc44479baa63",
					"type": "Patient",
					"display": "Jeramy BANKS"
				}
			}
		},
		{
			"fullUrl": "urn:uuid:d4ca61a6-5b55-41ab-9b1a-fba0daefe94d",
			"resource": {
				"resourceType": "MedicationRequest",
				"meta": {
					"versionId": "1",
					"lastUpdated": "2025-02-25T11:17:03.285+11:00",
					"source": "#xn0PgjgMQdX7rws7",
					"profile": [
						"http://hl7.org.au/fhir/core/StructureDefinition/au-core-medicationrequest",
						"http://hl7.org.au/fhir/ps/StructureDefinition/au-ps-medicationrequest"
					]
				},
				"contained": [
					{
						"resourceType": "Medication",
						"id": "medication",
						"meta": {
							"profile": [
								"http://hl7.org.au/fhir/core/StructureDefinition/au-core-medication",
								"http://hl7.org.au/fhir/ps/StructureDefinition/au-ps-medication"
							]
						},
						"code": {
							"coding": [
								{
									"system": "http://snomed.info/sct",
									"code": "13029011000036109",
									"display": "Ventolin Inhaler CFC-Free 100 microgram/actuation inhalation, 200 actuations"
								}
							],
							"text": "Ventolin Inhaler CFC-Free 100 microgram/actuation inhalation, 200 actuations"
						}
					}
				],
				"status": "active",
				"intent": "order",
				"medicationReference": {
					"reference": "#medication",
					"display": "Ventolin Inhaler CFC-Free 100 microgram/actuation inhalation, 200 actuations"
				},
				"subject": {
					"reference": "urn:uuid:d1122188-f53f-417f-a84f-bc44479baa63",
					"type": "Patient",
					"display": "Jeramy BANKS"
				},
				"_authoredOn": {
					"extension": [
						{
							"url": "http://hl7.org/fhir/StructureDefinition/data-absent-reason",
							"valueCode": "unknown"
						}
					]
				},
				"requester": {
					"reference": "urn:uuid:ca779d48-9dd8-4fe1-829a-d48b12b492af",
					"type": "Practitioner",
					"display": "Abe LOWE"
				},
				"dosageInstruction": [
					{
						"route": {
							"coding": [
								{
									"system": "http://snomed.info/sct",
									"code": "447694001",
									"display": "Respiratory tract route"
								}
							],
							"text": "Respiratory tract route"
						},
						"doseAndRate": [
							{
								"doseQuantity": {
									"value": 2
								}
							}
						]
					}
				]
			}
		},
		{
			"fullUrl": "urn:uuid:3f76e819-1f30-405d-b1ef-66c878b401c2",
			"resource": {
				"resourceType": "MedicationRequest",
				"meta": {
					"versionId": "1",
					"lastUpdated": "2025-02-25T11:17:03.285+11:00",
					"source": "#xn0PgjgMQdX7rws7",
					"profile": [
						"http://hl7.org.au/fhir/core/StructureDefinition/au-core-medicationrequest",
						"http://hl7.org.au/fhir/ps/StructureDefinition/au-ps-medicationrequest"
					]
				},
				"contained": [
					{
						"resourceType": "Medication",
						"id": "medication",
						"meta": {
							"profile": [
								"http://hl7.org.au/fhir/core/StructureDefinition/au-core-medication",
								"http://hl7.org.au/fhir/ps/StructureDefinition/au-ps-medication"
							]
						},
						"code": {
							"coding": [
								{
									"system": "http://snomed.info/sct",
									"code": "11404011000036102",
									"display": "Zyloprim 100 mg tablet, 200"
								}
							],
							"text": "Zyloprim 100 mg tablet, 200"
						}
					}
				],
				"status": "active",
				"intent": "order",
				"medicationReference": {
					"reference": "#medication",
					"display": "Zyloprim 100 mg tablet, 200"
				},
				"subject": {
					"reference": "urn:uuid:d1122188-f53f-417f-a84f-bc44479baa63",
					"type": "Patient",
					"display": "Jeramy BANKS"
				},
				"_authoredOn": {
					"extension": [
						{
							"url": "http://hl7.org/fhir/StructureDefinition/data-absent-reason",
							"valueCode": "unknown"
						}
					]
				},
				"requester": {
					"reference": "urn:uuid:ca779d48-9dd8-4fe1-829a-d48b12b492af",
					"type": "Practitioner",
					"display": "Abe LOWE"
				},
				"dosageInstruction": [
					{
						"route": {
							"coding": [
								{
									"system": "http://snomed.info/sct",
									"code": "26643006",
									"display": "Oral route"
								}
							],
							"text": "Oral route"
						},
						"doseAndRate": [
							{
								"doseQuantity": {
									"value": 1
								}
							}
						]
					}
				]
			}
		},
		{
			"fullUrl": "urn:uuid:e96d8d8d-8ef2-436b-8d04-4d136a731398",
			"resource": {
				"resourceType": "MedicationRequest",
				"meta": {
					"versionId": "1",
					"lastUpdated": "2025-02-25T11:17:03.285+11:00",
					"source": "#xn0PgjgMQdX7rws7",
					"profile": [
						"http://hl7.org.au/fhir/core/StructureDefinition/au-core-medicationrequest",
						"http://hl7.org.au/fhir/ps/StructureDefinition/au-ps-medicationrequest"
					]
				},
				"contained": [
					{
						"resourceType": "Medication",
						"id": "medication",
						"meta": {
							"profile": [
								"http://hl7.org.au/fhir/core/StructureDefinition/au-core-medication",
								"http://hl7.org.au/fhir/ps/StructureDefinition/au-ps-medication"
							]
						},
						"code": {
							"coding": [
								{
									"system": "http://snomed.info/sct",
									"code": "13826011000036104",
									"display": "Spiriva 18 microgram powder for inhalation, 30 capsules"
								}
							],
							"text": "Spiriva 18 microgram powder for inhalation, 30 capsules"
						}
					}
				],
				"status": "active",
				"intent": "order",
				"medicationReference": {
					"reference": "#medication",
					"display": "Spiriva 18 microgram powder for inhalation, 30 capsules"
				},
				"subject": {
					"reference": "urn:uuid:d1122188-f53f-417f-a84f-bc44479baa63",
					"type": "Patient",
					"display": "Jeramy BANKS"
				},
				"_authoredOn": {
					"extension": [
						{
							"url": "http://hl7.org/fhir/StructureDefinition/data-absent-reason",
							"valueCode": "unknown"
						}
					]
				},
				"requester": {
					"reference": "urn:uuid:ca779d48-9dd8-4fe1-829a-d48b12b492af",
					"type": "Practitioner",
					"display": "Abe LOWE"
				},
				"dosageInstruction": [
					{
						"route": {
							"coding": [
								{
									"system": "http://snomed.info/sct",
									"code": "447694001",
									"display": "Respiratory tract route"
								}
							],
							"text": "Respiratory tract route"
						},
						"doseAndRate": [
							{
								"doseQuantity": {
									"value": 1
								}
							}
						]
					}
				]
			}
		},
		{
			"fullUrl": "urn:uuid:96b7e47d-0487-4219-adbe-7c2dfb0b2deb",
			"resource": {
				"resourceType": "MedicationRequest",
				"meta": {
					"versionId": "1",
					"lastUpdated": "2025-02-25T11:17:03.285+11:00",
					"source": "#xn0PgjgMQdX7rws7",
					"profile": [
						"http://hl7.org.au/fhir/core/StructureDefinition/au-core-medicationrequest",
						"http://hl7.org.au/fhir/ps/StructureDefinition/au-ps-medicationrequest"
					]
				},
				"contained": [
					{
						"resourceType": "Medication",
						"id": "medication",
						"meta": {
							"profile": [
								"http://hl7.org.au/fhir/core/StructureDefinition/au-core-medication",
								"http://hl7.org.au/fhir/ps/StructureDefinition/au-ps-medication"
							]
						},
						"code": {
							"coding": [
								{
									"system": "http://snomed.info/sct",
									"code": "175151000036106",
									"display": "Ezetimibe 10 mg tablet [30] (&) rosuvastatin 40 mg tablet [30], 60"
								}
							],
							"text": "Ezetimibe 10 mg tablet [30] (&) rosuvastatin 40 mg tablet [30], 60"
						},
						"form": {
							"coding": [
								{
									"system": "http://snomed.info/sct",
									"code": "421026006",
									"display": "Tablet"
								}
							],
							"text": "Tablet"
						}
					}
				],
				"status": "active",
				"intent": "order",
				"medicationReference": {
					"reference": "#medication",
					"display": "Ezetimibe 10 mg tablet [30] (&) rosuvastatin 40 mg tablet [30], 60"
				},
				"subject": {
					"reference": "urn:uuid:d1122188-f53f-417f-a84f-bc44479baa63",
					"type": "Patient",
					"display": "Jeramy BANKS"
				},
				"_authoredOn": {
					"extension": [
						{
							"url": "http://hl7.org/fhir/StructureDefinition/data-absent-reason",
							"valueCode": "unknown"
						}
					]
				},
				"requester": {
					"reference": "urn:uuid:ca779d48-9dd8-4fe1-829a-d48b12b492af",
					"type": "Practitioner",
					"display": "Abe LOWE"
				},
				"dosageInstruction": [
					{
						"route": {
							"coding": [
								{
									"system": "http://snomed.info/sct",
									"code": "26643006",
									"display": "Oral route"
								}
							],
							"text": "Oral route"
						},
						"doseAndRate": [
							{
								"doseQuantity": {
									"value": 1
								}
							}
						]
					}
				]
			}
		},
		{
			"fullUrl": "urn:uuid:d7351a16-8df1-47a4-9129-2c2d6c2238ec",
			"resource": {
				"resourceType": "MedicationRequest",
				"meta": {
					"versionId": "1",
					"lastUpdated": "2025-02-25T11:17:03.285+11:00",
					"source": "#xn0PgjgMQdX7rws7",
					"profile": [
						"http://hl7.org.au/fhir/core/StructureDefinition/au-core-medicationrequest",
						"http://hl7.org.au/fhir/ps/StructureDefinition/au-ps-medicationrequest"
					]
				},
				"contained": [
					{
						"resourceType": "Medication",
						"id": "medication",
						"meta": {
							"profile": [
								"http://hl7.org.au/fhir/core/StructureDefinition/au-core-medication",
								"http://hl7.org.au/fhir/ps/StructureDefinition/au-ps-medication"
							]
						},
						"code": {
							"coding": [
								{
									"system": "http://snomed.info/sct",
									"code": "929413011000036109",
									"display": "Metformin (Apo) 500 mg tablet"
								}
							],
							"text": "Metformin (Apo) 500 mg tablet"
						}
					}
				],
				"status": "active",
				"intent": "order",
				"medicationReference": {
					"reference": "#medication",
					"display": "Metformin (Apo) 500 mg tablet"
				},
				"subject": {
					"reference": "urn:uuid:d1122188-f53f-417f-a84f-bc44479baa63",
					"type": "Patient",
					"display": "Jeramy BANKS"
				},
				"_authoredOn": {
					"extension": [
						{
							"url": "http://hl7.org/fhir/StructureDefinition/data-absent-reason",
							"valueCode": "unknown"
						}
					]
				},
				"requester": {
					"reference": "urn:uuid:ca779d48-9dd8-4fe1-829a-d48b12b492af",
					"type": "Practitioner",
					"display": "Abe LOWE"
				},
				"dosageInstruction": [
					{
						"route": {
							"coding": [
								{
									"system": "http://snomed.info/sct",
									"code": "26643006",
									"display": "Oral route"
								}
							],
							"text": "Oral route"
						},
						"doseAndRate": [
							{
								"doseQuantity": {
									"value": 1
								}
							}
						]
					}
				]
			}
		},
		{
			"fullUrl": "urn:uuid:fbc14baf-d7bf-4fa0-9035-f8e4a73986d0",
			"resource": {
				"resourceType": "MedicationRequest",
				"meta": {
					"versionId": "1",
					"lastUpdated": "2025-02-25T11:17:03.285+11:00",
					"source": "#xn0PgjgMQdX7rws7",
					"profile": [
						"http://hl7.org.au/fhir/core/StructureDefinition/au-core-medicationrequest",
						"http://hl7.org.au/fhir/ps/StructureDefinition/au-ps-medicationrequest"
					]
				},
				"contained": [
					{
						"resourceType": "Medication",
						"id": "medication",
						"meta": {
							"profile": [
								"http://hl7.org.au/fhir/core/StructureDefinition/au-core-medication",
								"http://hl7.org.au/fhir/ps/StructureDefinition/au-ps-medication"
							]
						},
						"code": {
							"coding": [
								{
									"system": "http://snomed.info/sct",
									"code": "23173011000036104",
									"display": "Aspirin 100 mg tablet"
								}
							],
							"text": "Aspirin 100 mg tablet"
						}
					}
				],
				"status": "active",
				"intent": "order",
				"medicationReference": {
					"reference": "#medication",
					"display": "Aspirin 100 mg tablet"
				},
				"subject": {
					"reference": "urn:uuid:d1122188-f53f-417f-a84f-bc44479baa63",
					"type": "Patient",
					"display": "Jeramy BANKS"
				},
				"_authoredOn": {
					"extension": [
						{
							"url": "http://hl7.org/fhir/StructureDefinition/data-absent-reason",
							"valueCode": "unknown"
						}
					]
				},
				"requester": {
					"reference": "urn:uuid:ca779d48-9dd8-4fe1-829a-d48b12b492af",
					"type": "Practitioner",
					"display": "Abe LOWE"
				},
				"dosageInstruction": [
					{
						"route": {
							"coding": [
								{
									"system": "http://snomed.info/sct",
									"code": "26643006",
									"display": "Oral route"
								}
							],
							"text": "Oral route"
						},
						"doseAndRate": [
							{
								"doseQuantity": {
									"value": 1
								}
							}
						]
					}
				]
			}
		},
		{
			"fullUrl": "urn:uuid:cefeac7e-cf0c-4c14-917d-2a526516c3d1",
			"resource": {
				"resourceType": "MedicationRequest",
				"meta": {
					"versionId": "1",
					"lastUpdated": "2025-02-25T11:17:03.285+11:00",
					"source": "#xn0PgjgMQdX7rws7",
					"profile": [
						"http://hl7.org.au/fhir/core/StructureDefinition/au-core-medicationrequest",
						"http://hl7.org.au/fhir/ps/StructureDefinition/au-ps-medicationrequest"
					]
				},
				"contained": [
					{
						"resourceType": "Medication",
						"id": "medication",
						"meta": {
							"profile": [
								"http://hl7.org.au/fhir/core/StructureDefinition/au-core-medication",
								"http://hl7.org.au/fhir/ps/StructureDefinition/au-ps-medication"
							]
						},
						"code": {
							"coding": [
								{
									"system": "http://snomed.info/sct",
									"code": "22969011000036102",
									"display": "Telmisartan 80 mg tablet"
								}
							],
							"text": "Telmisartan 80 mg tablet"
						}
					}
				],
				"status": "active",
				"intent": "order",
				"medicationReference": {
					"reference": "#medication",
					"display": "Telmisartan 80 mg tablet"
				},
				"subject": {
					"reference": "urn:uuid:d1122188-f53f-417f-a84f-bc44479baa63",
					"type": "Patient",
					"display": "Jeramy BANKS"
				},
				"_authoredOn": {
					"extension": [
						{
							"url": "http://hl7.org/fhir/StructureDefinition/data-absent-reason",
							"valueCode": "unknown"
						}
					]
				},
				"requester": {
					"reference": "urn:uuid:ca779d48-9dd8-4fe1-829a-d48b12b492af",
					"type": "Practitioner",
					"display": "Abe LOWE"
				},
				"dosageInstruction": [
					{
						"route": {
							"coding": [
								{
									"system": "http://snomed.info/sct",
									"code": "26643006",
									"display": "Oral route"
								}
							],
							"text": "Oral route"
						},
						"doseAndRate": [
							{
								"doseQuantity": {
									"value": 1
								}
							}
						]
					}
				]
			}
		},
		{
			"fullUrl": "urn:uuid:ca779d48-9dd8-4fe1-829a-d48b12b492af",
			"resource": {
				"resourceType": "Practitioner",
				"meta": {
					"versionId": "1",
					"lastUpdated": "2025-02-25T11:17:03.285+11:00",
					"source": "#xn0PgjgMQdX7rws7",
					"profile": [
						"http://hl7.org.au/fhir/core/StructureDefinition/au-core-practitioner"
					]
				},
				"identifier": [
					{
						"type": {
							"coding": [
								{
									"system": "http://terminology.hl7.org/CodeSystem/v2-0203",
									"code": "NPI",
									"display": "National provider identifier"
								}
							],
							"text": "HPI-I"
						},
						"system": "http://ns.electronichealth.net.au/id/hi/hpii/1.0",
						"value": "8003616566718832"
					},
					{
						"type": {
							"coding": [
								{
									"system": "http://terminology.hl7.org.au/CodeSystem/v2-0203",
									"code": "PRES",
									"display": "Prescriber Number"
								}
							]
						},
						"system": "http://ns.electronichealth.net.au/id/medicare-prescriber-number",
						"value": "8017196"
					}
				],
				"name": [
					{
						"family": "LOWE",
						"given": [
							"Abe"
						]
					}
				],
				"telecom": [
					{
						"system": "phone",
						"value": "0270102315",
						"use": "work"
					},
					{
						"system": "email",
						"value": "abe.lowe@mossypointmc.example.net"
					}
				],
				"address": [
					{
						"line": [
							"158 Warrego Cl"
						],
						"city": "Mossy Point",
						"state": "NSW",
						"postalCode": "2537"
					}
				],
				"gender": "male",
				"qualification": [
					{
						"extension": [
							{
								"url": "http://hl7.org.au/fhir/StructureDefinition/ahpraprofession-details",
								"extension": [
									{
										"url": "ahpraProfession",
										"valueCodeableConcept": {
											"text": "Medical Practitioner"
										}
									}
								]
							}
						],
						"identifier": [
							{
								"type": {
									"coding": [
										{
											"system": "http://terminology.hl7.org.au/CodeSystem/v2-0203",
											"code": "AHPRA",
											"display": "Australian Health Practitioner Regulation Agency Registration Number"
										}
									],
									"text": "Ahpra Registration Number"
								},
								"system": "http://hl7.org.au/id/ahpra-registration-number",
								"value": "HAC0000000042"
							}
						],
						"code": {
							"coding": [
								{
									"system": "http://terminology.hl7.org.au/CodeSystem/v2-0360",
									"code": "AUAHPRAProfession",
									"display": "AHPRA Profession"
								}
							]
						}
					}
				]
			}
		},
		{
			"fullUrl": "urn:uuid:96013c59-2a84-4e89-9aa4-96d04d367466",
			"resource": {
				"resourceType": "Condition",
				"meta": {
					"versionId": "1",
					"lastUpdated": "2025-02-25T11:17:03.285+11:00",
					"source": "#xn0PgjgMQdX7rws7",
					"profile": [
						"http://hl7.org.au/fhir/core/StructureDefinition/au-core-condition",
						"http://hl7.org.au/fhir/ps/StructureDefinition/au-ps-condition"
					]
				},
				"category": [
					{
						"coding": [
							{
								"system": "http://terminology.hl7.org/CodeSystem/condition-category",
								"code": "problem-list-item"
							}
						],
						"text": "Problem"
					}
				],
				"code": {
					"coding": [
						{
							"system": "http://snomed.info/sct",
							"code": "13644009",
							"display": "Hypercholesterolaemia"
						}
					],
					"text": "Hypercholesterolaemia"
				},
				"subject": {
					"reference": "urn:uuid:d1122188-f53f-417f-a84f-bc44479baa63",
					"type": "Patient",
					"display": "Jeramy BANKS"
				}
			}
		},
		{
			"fullUrl": "urn:uuid:8714f907-ddf9-4f21-9ea9-663e4ad0f99c",
			"resource": {
				"resourceType": "Condition",
				"meta": {
					"versionId": "1",
					"lastUpdated": "2025-02-25T11:17:03.285+11:00",
					"source": "#xn0PgjgMQdX7rws7",
					"profile": [
						"http://hl7.org.au/fhir/core/StructureDefinition/au-core-condition",
						"http://hl7.org.au/fhir/ps/StructureDefinition/au-ps-condition"
					]
				},
				"category": [
					{
						"coding": [
							{
								"system": "http://terminology.hl7.org/CodeSystem/condition-category",
								"code": "problem-list-item"
							}
						],
						"text": "Problem"
					}
				],
				"code": {
					"coding": [
						{
							"system": "http://snomed.info/sct",
							"code": "44054006",
							"display": "Type 2 diabetes mellitus"
						}
					],
					"text": "Type 2 diabetes mellitus"
				},
				"subject": {
					"reference": "urn:uuid:d1122188-f53f-417f-a84f-bc44479baa63",
					"type": "Patient",
					"display": "Jeramy BANKS"
				}
			}
		},
		{
			"fullUrl": "urn:uuid:bea49472-f812-4aa0-ad52-fb90fad2b0d1",
			"resource": {
				"resourceType": "Condition",
				"meta": {
					"versionId": "1",
					"lastUpdated": "2025-02-25T11:17:03.285+11:00",
					"source": "#xn0PgjgMQdX7rws7",
					"profile": [
						"http://hl7.org.au/fhir/core/StructureDefinition/au-core-condition",
						"http://hl7.org.au/fhir/ps/StructureDefinition/au-ps-condition"
					]
				},
				"category": [
					{
						"coding": [
							{
								"system": "http://terminology.hl7.org/CodeSystem/condition-category",
								"code": "problem-list-item"
							}
						],
						"text": "Problem"
					}
				],
				"code": {
					"coding": [
						{
							"system": "http://snomed.info/sct",
							"code": "38341003",
							"display": "Hypertension"
						}
					],
					"text": "Hypertension"
				},
				"subject": {
					"reference": "urn:uuid:d1122188-f53f-417f-a84f-bc44479baa63",
					"type": "Patient",
					"display": "Jeramy BANKS"
				}
			}
		},
		{
			"fullUrl": "urn:uuid:55e4f3ea-ed3c-4cef-badd-f582254a97dd",
			"resource": {
				"resourceType": "Condition",
				"meta": {
					"versionId": "1",
					"lastUpdated": "2025-02-25T11:17:03.285+11:00",
					"source": "#xn0PgjgMQdX7rws7",
					"profile": [
						"http://hl7.org.au/fhir/core/StructureDefinition/au-core-condition",
						"http://hl7.org.au/fhir/ps/StructureDefinition/au-ps-condition"
					]
				},
				"clinicalStatus": {
					"coding": [
						{
							"system": "http://terminology.hl7.org/CodeSystem/condition-clinical",
							"code": "inactive",
							"display": "Inactive"
						}
					],
					"text": "Inactive"
				},
				"category": [
					{
						"coding": [
							{
								"system": "http://terminology.hl7.org/CodeSystem/condition-category",
								"code": "problem-list-item"
							}
						],
						"text": "Problem"
					}
				],
				"code": {
					"coding": [
						{
							"system": "http://snomed.info/sct",
							"code": "90560007",
							"display": "Gout"
						}
					],
					"text": "Gout"
				},
				"bodySite": [
					{
						"coding": [
							{
								"system": "http://snomed.info/sct",
								"code": "723724004",
								"display": "Structure of left great toe"
							}
						],
						"text": "Structure of left great toe"
					}
				],
				"subject": {
					"reference": "urn:uuid:d1122188-f53f-417f-a84f-bc44479baa63",
					"type": "Patient",
					"display": "Jeramy BANKS"
				},
				"note": [
					{
						"text": "On allopurinol for uric acid control"
					}
				]
			}
		},
		{
			"fullUrl": "urn:uuid:604a5173-1cf4-4cf4-82a2-13b610ecc593",
			"resource": {
				"resourceType": "Condition",
				"meta": {
					"versionId": "1",
					"lastUpdated": "2025-02-25T11:17:03.285+11:00",
					"source": "#xn0PgjgMQdX7rws7",
					"profile": [
						"http://hl7.org.au/fhir/core/StructureDefinition/au-core-condition",
						"http://hl7.org.au/fhir/ps/StructureDefinition/au-ps-condition"
					]
				},
				"category": [
					{
						"coding": [
							{
								"system": "http://terminology.hl7.org/CodeSystem/condition-category",
								"code": "problem-list-item"
							}
						],
						"text": "Problem"
					}
				],
				"code": {
					"coding": [
						{
							"system": "http://snomed.info/sct",
							"code": "13645005",
							"display": "COPD"
						}
					],
					"text": "COPD"
				},
				"subject": {
					"reference": "urn:uuid:d1122188-f53f-417f-a84f-bc44479baa63",
					"type": "Patient",
					"display": "Jeramy BANKS"
				}
			}
		},
		{
			"fullUrl": "urn:uuid:825a781b-e083-4351-a3d9-adf56f65d7e9",
			"resource": {
				"resourceType": "Immunization",
				"meta": {
					"versionId": "2",
					"lastUpdated": "2025-02-25T11:39:15.709+11:00",
					"source": "#T4n4aPVAD0o1q6ha",
					"profile": [
						"http://hl7.org.au/fhir/core/StructureDefinition/au-core-immunization",
						"http://hl7.org.au/fhir/ps/StructureDefinition/au-ps-immunization"
					]
				},
				"status": "completed",
				"vaccineCode": {
					"coding": [
						{
							"system": "https://www.humanservices.gov.au/organisations/health-professionals/enablers/air-vaccine-code-formats",
							"version": "20240207",
							"code": "MMRCSL",
							"display": "M-M-R II"
						}
					],
					"text": "M-M-R II"
				},
				"patient": {
					"reference": "urn:uuid:d1122188-f53f-417f-a84f-bc44479baa63",
					"type": "Patient",
					"display": "Jeramy BANKS"
				},
				"occurrenceDateTime": "2021-06-17"
			}
		},
		{
			"fullUrl": "urn:uuid:1e0d5691-c20c-4e14-9261-20a1575ab065",
			"resource": {
				"resourceType": "Immunization",
				"meta": {
					"versionId": "2",
					"lastUpdated": "2025-02-25T11:39:15.709+11:00",
					"source": "#T4n4aPVAD0o1q6ha",
					"profile": [
						"http://hl7.org.au/fhir/core/StructureDefinition/au-core-immunization",
						"http://hl7.org.au/fhir/ps/StructureDefinition/au-ps-immunization"
					]
				},
				"status": "completed",
				"vaccineCode": {
					"coding": [
						{
							"system": "https://www.humanservices.gov.au/organisations/health-professionals/enablers/air-vaccine-code-formats",
							"version": "20240207",
							"code": "BOOST",
							"display": "Boostrix"
						}
					],
					"text": "Boostrix"
				},
				"patient": {
					"reference": "urn:uuid:d1122188-f53f-417f-a84f-bc44479baa63",
					"type": "Patient",
					"display": "Jeramy BANKS"
				},
				"occurrenceDateTime": "2021-06-17"
			}
		},
		{
			"fullUrl": "urn:uuid:0d0d8c79-7f2f-4586-8b2e-f1a1942fe3ed",
			"resource": {
				"resourceType": "Immunization",
				"meta": {
					"versionId": "2",
					"lastUpdated": "2025-02-25T11:39:15.709+11:00",
					"source": "#T4n4aPVAD0o1q6ha",
					"profile": [
						"http://hl7.org.au/fhir/core/StructureDefinition/au-core-immunization",
						"http://hl7.org.au/fhir/ps/StructureDefinition/au-ps-immunization"
					]
				},
				"status": "completed",
				"vaccineCode": {
					"coding": [
						{
							"system": "https://www.humanservices.gov.au/organisations/health-professionals/enablers/air-vaccine-code-formats",
							"version": "20240207",
							"code": "COVAST",
							"display": "AstraZeneca Vaxzevria"
						}
					],
					"text": "AstraZeneca Vaxzevria"
				},
				"patient": {
					"reference": "urn:uuid:d1122188-f53f-417f-a84f-bc44479baa63",
					"type": "Patient",
					"display": "Jeramy BANKS"
				},
				"occurrenceDateTime": "2021-06-17"
			}
		},
		{
			"fullUrl": "urn:uuid:39a9392b-31ed-494d-a789-a4aed5c81452",
			"resource": {
				"resourceType": "Device",
				"deviceName": [
					{
						"name": "AU Patient Summary generator",
						"type": "manufacturer-name"
					}
				]
			}
		}
	]
}