{
	"resourceType": "Bundle",
	"meta": {
		"profile": [
			"http://hl7.org.au/fhir/ps/StructureDefinition/au-ps-bundle"
		]
	},
	"identifier": {
		"system": "urn:ietf:rfc:4122",
		"value": "2aea30ee-9c7c-4c2a-b6e7-9422d63b1df9"
	},
	"type": "document",
	"timestamp": "2025-02-27T11:57:11.269+11:00",
	"entry": [
		{
			"fullUrl": "urn:uuid:6a726988-c0a9-4b05-97d2-967aeeef1c36",
			"resource": {
				"resourceType": "Composition",
				"meta": {
					"profile": [
						"http://hl7.org.au/fhir/ps/StructureDefinition/au-ps-composition"
					]
				},
				"text": {
					"status": "generated",
					"div": "<div xmlns=\"http://www.w3.org/1999/xhtml\"><h1>Australian Patient Summary Document</h1></div>"
				},
				"status": "final",
				"type": {
					"coding": [
						{
							"system": "http://loinc.org",
							"code": "60591-5",
							"display": "Patient summary Document"
						}
					]
				},
				"subject": {
					"reference": "urn:uuid:85822a88-55b1-460c-bb7b-e8fc22d8568f"
				},
				"date": "2025-02-27T11:57:10.868+11:00",
				"author": [
					{
						"reference": "urn:uuid:88c8abc8-9480-4688-8d80-069578184dc4"
					}
				],
				"title": "Patient Summary as of 27 Feb 2025",
				"confidentiality": "N",
				"event": [
					{
						"code": [
							{
								"coding": [
									{
										"system": "http://terminology.hl7.org/CodeSystem/v3-ActClass",
										"code": "PCPR"
									}
								]
							}
						],
						"period": {
							"end": "2025-02-27T11:57:10+11:00"
						}
					}
				],
				"section": [
					{
						"title": "Allergies and Intolerances",
						"code": {
							"coding": [
								{
									"system": "http://loinc.org",
									"code": "48765-2",
									"display": "Allergies and adverse reactions Document"
								}
							]
						},
						"text": {
							"status": "generated",
							"div": "<div xmlns=\"http://www.w3.org/1999/xhtml\">TBD</div>"
						},
						"entry": [
							{
								"reference": "urn:uuid:0baac8a9-69b8-4e99-9460-03df08f92c98"
							}
						]
					},
					{
						"title": "Medication List",
						"code": {
							"coding": [
								{
									"system": "http://loinc.org",
									"code": "10160-0",
									"display": "History of Medication use Narrative"
								}
							]
						},
						"text": {
							"status": "generated",
							"div": "<div xmlns=\"http://www.w3.org/1999/xhtml\">TBD</div>"
						},
						"entry": [
							{
								"reference": "urn:uuid:05292a9c-2bc9-43a7-b935-0a61ede063da"
							}
						]
					},
					{
						"title": "Problem list",
						"code": {
							"coding": [
								{
									"system": "http://loinc.org",
									"code": "11450-4",
									"display": "Problem list Reported"
								}
							]
						},
						"text": {
							"status": "generated",
							"div": "<div xmlns=\"http://www.w3.org/1999/xhtml\">TBD</div>"
						},
						"entry": [
							{
								"reference": "urn:uuid:cb647933-b18c-42ef-a1c8-ae137921ba83"
							},
							{
								"reference": "urn:uuid:d591e623-e032-4473-9db2-8a1de4fd8b70"
							},
							{
								"reference": "urn:uuid:78f75926-3ee1-44a7-9424-6178d905af63"
							},
							{
								"reference": "urn:uuid:919c2c59-ba0c-495e-9d9d-80e59fb119bc"
							},
							{
								"reference": "urn:uuid:be5e2ebf-5842-4533-b989-46cf96d26aac"
							}
						]
					},
					{
						"title": "History of Immunizations",
						"code": {
							"coding": [
								{
									"system": "http://loinc.org",
									"code": "11369-6",
									"display": "History of Immunization Narrative"
								}
							]
						},
						"text": {
							"status": "generated",
							"div": "<div xmlns=\"http://www.w3.org/1999/xhtml\">TBD</div>"
						},
						"entry": [
							{
								"reference": "urn:uuid:784ae7d5-22df-442d-b932-0c001720136c"
							}
						]
					},
					{
						"title": "Pregnancy Information",
						"code": {
							"coding": [
								{
									"system": "http://loinc.org",
									"code": "10162-6",
									"display": "History of pregnancies Narrative"
								}
							]
						},
						"text": {
							"status": "generated",
							"div": "<div xmlns=\"http://www.w3.org/1999/xhtml\">TBD</div>"
						},
						"entry": [
							{
								"reference": "urn:uuid:f85ad223-7bed-46f3-893d-e89d6082f9a9"
							}
						]
					},
					{
						"title": "Social History",
						"code": {
							"coding": [
								{
									"system": "http://loinc.org",
									"code": "29762-2",
									"display": "Social history Narrative"
								}
							]
						},
						"text": {
							"status": "generated",
							"div": "<div xmlns=\"http://www.w3.org/1999/xhtml\">TBD</div>"
						},
						"entry": [
							{
								"reference": "urn:uuid:f85ad223-7bed-46f3-893d-e89d6082f9a9"
							}
						]
					}
				]
			}
		},
		{
			"fullUrl": "urn:uuid:85822a88-55b1-460c-bb7b-e8fc22d8568f",
			"resource": {
				"resourceType": "Patient",
				"meta": {
					"versionId": "1",
					"lastUpdated": "2025-02-25T11:26:48.714+11:00",
					"source": "#h7UVliMIr3RgPe8t",
					"profile": [
						"http://hl7.org.au/fhir/core/StructureDefinition/au-core-patient",
						"http://hl7.org.au/fhir/ps/StructureDefinition/au-ps-patient"
					]
				},
				"extension": [
					{
						"url": "http://hl7.org.au/fhir/StructureDefinition/indigenous-status",
						"valueCoding": {
							"system": "https://healthterminologies.gov.au/fhir/CodeSystem/australian-indigenous-status-1",
							"code": "4",
							"display": "Neither Aboriginal nor Torres Strait Islander origin"
						}
					}
				],
				"identifier": [
					{
						"extension": [
							{
								"url": "http://hl7.org.au/fhir/StructureDefinition/ihi-status",
								"valueCoding": {
									"system": "https://healthterminologies.gov.au/fhir/CodeSystem/ihi-status-1",
									"code": "active"
								}
							},
							{
								"url": "http://hl7.org.au/fhir/StructureDefinition/ihi-record-status",
								"valueCoding": {
									"system": "https://healthterminologies.gov.au/fhir/CodeSystem/ihi-record-status-1",
									"code": "verified",
									"display": "verified"
								}
							}
						],
						"type": {
							"coding": [
								{
									"system": "http://terminology.hl7.org/CodeSystem/v2-0203",
									"code": "NI"
								}
							],
							"text": "IHI"
						},
						"system": "http://ns.electronichealth.net.au/id/hi/ihi/1.0",
						"value": "8003608500314679"
					},
					{
						"type": {
							"coding": [
								{
									"system": "http://terminology.hl7.org/CodeSystem/v2-0203",
									"code": "MC"
								}
							],
							"text": "Medicare Number"
						},
						"system": "http://ns.electronichealth.net.au/id/medicare-number",
						"value": "29545401611"
					}
				],
				"name": [
					{
						"use": "official",
						"family": "JOHNSON",
						"given": [
							"Joyce"
						]
					}
				],
				"telecom": [
					{
						"system": "phone",
						"value": "0270108012",
						"use": "home"
					},
					{
						"system": "phone",
						"value": "0491571804",
						"use": "mobile"
					},
					{
						"system": "phone",
						"value": "0270109558",
						"use": "work"
					}
				],
				"gender": "female",
				"birthDate": "1985-02-06",
				"address": [
					{
						"line": [
							"139 River Lane"
						],
						"city": "Palmvale",
						"state": "NSW",
						"postalCode": "2484",
						"country": "AU"
					}
				]
			}
		},
		{
			"fullUrl": "urn:uuid:0baac8a9-69b8-4e99-9460-03df08f92c98",
			"resource": {
				"resourceType": "AllergyIntolerance",
				"meta": {
					"versionId": "1",
					"lastUpdated": "2025-02-25T11:26:48.714+11:00",
					"source": "#h7UVliMIr3RgPe8t",
					"profile": [
						"http://hl7.org.au/fhir/core/StructureDefinition/au-core-allergyintolerance",
						"http://hl7.org.au/fhir/ps/StructureDefinition/au-ps-allergyintolerance"
					]
				},
				"clinicalStatus": {
					"coding": [
						{
							"system": "http://terminology.hl7.org/CodeSystem/allergyintolerance-clinical",
							"code": "active"
						}
					]
				},
				"code": {
					"coding": [
						{
							"system": "http://snomed.info/sct",
							"code": "716186003",
							"display": "No known allergy"
						}
					],
					"text": "No known allergy"
				},
				"patient": {
					"reference": "urn:uuid:85822a88-55b1-460c-bb7b-e8fc22d8568f",
					"type": "Patient",
					"display": "Joyce JOHNSON"
				}
			}
		},
		{
			"fullUrl": "urn:uuid:05292a9c-2bc9-43a7-b935-0a61ede063da",
			"resource": {
				"resourceType": "MedicationStatement",
				"meta": {
					"versionId": "1",
					"lastUpdated": "2025-02-25T11:26:48.714+11:00",
					"source": "#h7UVliMIr3RgPe8t",
					"profile": [
						"http://hl7.org.au/fhir/StructureDefinition/au-medicationstatement",
						"http://hl7.org.au/fhir/ps/StructureDefinition/au-ps-medicationstatement"
					]
				},
				"contained": [
					{
						"resourceType": "Medication",
						"id": "medication",
						"meta": {
							"profile": [
								"http://hl7.org.au/fhir/core/StructureDefinition/au-core-medication",
								"http://hl7.org.au/fhir/ps/StructureDefinition/au-ps-medication"
							]
						},
						"code": {
							"coding": [
								{
									"system": "http://snomed.info/sct",
									"code": "109081006",
									"display": "Metformin"
								}
							],
							"text": "Metformin"
						},
						"form": {
							"coding": [
								{
									"system": "http://snomed.info/sct",
									"code": "385055001",
									"display": "Tablet"
								}
							],
							"text": "Tablet"
						}
					}
				],
				"status": "completed",
				"medicationReference": {
					"reference": "#medication"
				},
				"subject": {
					"reference": "urn:uuid:85822a88-55b1-460c-bb7b-e8fc22d8568f",
					"type": "Patient",
					"display": "Joyce JOHNSON"
				},
				"dosage": [
					{
						"timing": {
							"code": {
								"coding": [
									{
										"system": "http://terminology.hl7.org/CodeSystem/v3-GTSAbbreviation",
										"code": "BID",
										"display": "BID"
									}
								],
								"text": "BID"
							}
						},
						"route": {
							"coding": [
								{
									"system": "http://snomed.info/sct",
									"code": "26643006",
									"display": "Oral route"
								}
							],
							"text": "Oral route"
						}
					}
				]
			}
		},
		{
			"fullUrl": "urn:uuid:cb647933-b18c-42ef-a1c8-ae137921ba83",
			"resource": {
				"resourceType": "Condition",
				"meta": {
					"versionId": "1",
					"lastUpdated": "2025-02-25T11:26:48.714+11:00",
					"source": "#h7UVliMIr3RgPe8t",
					"profile": [
						"http://hl7.org.au/fhir/core/StructureDefinition/au-core-condition",
						"http://hl7.org.au/fhir/ps/StructureDefinition/au-ps-condition"
					]
				},
				"category": [
					{
						"coding": [
							{
								"system": "http://terminology.hl7.org/CodeSystem/condition-category",
								"code": "problem-list-item"
							}
						],
						"text": "Problem"
					}
				],
				"code": {
					"coding": [
						{
							"system": "http://snomed.info/sct",
							"code": "11687002",
							"display": "Gestational diabetes mellitus"
						}
					],
					"text": "Gestational diabetes mellitus"
				},
				"subject": {
					"reference": "urn:uuid:85822a88-55b1-460c-bb7b-e8fc22d8568f",
					"type": "Patient",
					"display": "Joyce JOHNSON"
				},
				"note": [
					{
						"text": "Recent diagnosis, referring to Endo & Dietitian"
					}
				]
			}
		},
		{
			"fullUrl": "urn:uuid:d591e623-e032-4473-9db2-8a1de4fd8b70",
			"resource": {
				"resourceType": "Condition",
				"meta": {
					"versionId": "1",
					"lastUpdated": "2025-02-25T11:26:48.714+11:00",
					"source": "#h7UVliMIr3RgPe8t",
					"profile": [
						"http://hl7.org.au/fhir/core/StructureDefinition/au-core-condition",
						"http://hl7.org.au/fhir/ps/StructureDefinition/au-ps-condition"
					]
				},
				"category": [
					{
						"coding": [
							{
								"system": "http://terminology.hl7.org/CodeSystem/condition-category",
								"code": "problem-list-item"
							}
						],
						"text": "Problem"
					}
				],
				"code": {
					"coding": [
						{
							"system": "http://snomed.info/sct",
							"code": "74400008",
							"display": "Appendicitis"
						}
					],
					"text": "Appendicitis"
				},
				"subject": {
					"reference": "urn:uuid:85822a88-55b1-460c-bb7b-e8fc22d8568f",
					"type": "Patient",
					"display": "Joyce JOHNSON"
				}
			}
		},
		{
			"fullUrl": "urn:uuid:78f75926-3ee1-44a7-9424-6178d905af63",
			"resource": {
				"resourceType": "Condition",
				"meta": {
					"versionId": "1",
					"lastUpdated": "2025-02-25T11:26:48.714+11:00",
					"source": "#h7UVliMIr3RgPe8t",
					"profile": [
						"http://hl7.org.au/fhir/core/StructureDefinition/au-core-condition",
						"http://hl7.org.au/fhir/ps/StructureDefinition/au-ps-condition"
					]
				},
				"category": [
					{
						"coding": [
							{
								"system": "http://terminology.hl7.org/CodeSystem/condition-category",
								"code": "problem-list-item"
							}
						],
						"text": "Problem"
					}
				],
				"code": {
					"coding": [
						{
							"system": "http://snomed.info/sct",
							"code": "271737000",
							"display": "Anaemia"
						}
					],
					"text": "Anaemia"
				},
				"subject": {
					"reference": "urn:uuid:85822a88-55b1-460c-bb7b-e8fc22d8568f",
					"type": "Patient",
					"display": "Joyce JOHNSON"
				}
			}
		},
		{
			"fullUrl": "urn:uuid:919c2c59-ba0c-495e-9d9d-80e59fb119bc",
			"resource": {
				"resourceType": "Condition",
				"meta": {
					"versionId": "1",
					"lastUpdated": "2025-02-25T11:26:48.714+11:00",
					"source": "#h7UVliMIr3RgPe8t",
					"profile": [
						"http://hl7.org.au/fhir/core/StructureDefinition/au-core-condition",
						"http://hl7.org.au/fhir/ps/StructureDefinition/au-ps-condition"
					]
				},
				"category": [
					{
						"coding": [
							{
								"system": "http://terminology.hl7.org/CodeSystem/condition-category",
								"code": "problem-list-item"
							}
						],
						"text": "Problem"
					}
				],
				"code": {
					"coding": [
						{
							"system": "http://snomed.info/sct",
							"code": "77830003",
							"display": "Epidermal burn of multiple sites"
						}
					],
					"text": "Epidermal burn of multiple sites"
				},
				"bodySite": [
					{
						"coding": [
							{
								"system": "http://snomed.info/sct",
								"code": "16982005",
								"display": "Shoulder region structure"
							}
						],
						"text": "Shoulder region structure"
					}
				],
				"subject": {
					"reference": "urn:uuid:85822a88-55b1-460c-bb7b-e8fc22d8568f",
					"type": "Patient",
					"display": "Joyce JOHNSON"
				},
				"note": [
					{
						"text": "Severe sunburn, upper shoulders and back"
					}
				]
			}
		},
		{
			"fullUrl": "urn:uuid:be5e2ebf-5842-4533-b989-46cf96d26aac",
			"resource": {
				"resourceType": "Condition",
				"meta": {
					"versionId": "1",
					"lastUpdated": "2025-02-25T11:26:48.714+11:00",
					"source": "#h7UVliMIr3RgPe8t",
					"profile": [
						"http://hl7.org.au/fhir/core/StructureDefinition/au-core-condition",
						"http://hl7.org.au/fhir/ps/StructureDefinition/au-ps-condition"
					]
				},
				"category": [
					{
						"coding": [
							{
								"system": "http://terminology.hl7.org/CodeSystem/condition-category",
								"code": "problem-list-item"
							}
						],
						"text": "Problem"
					}
				],
				"code": {
					"coding": [
						{
							"system": "http://snomed.info/sct",
							"code": "54150009",
							"display": "Upper respiratory tract infection"
						}
					],
					"text": "Upper respiratory tract infection"
				},
				"subject": {
					"reference": "urn:uuid:85822a88-55b1-460c-bb7b-e8fc22d8568f",
					"type": "Patient",
					"display": "Joyce JOHNSON"
				}
			}
		},
		{
			"fullUrl": "urn:uuid:784ae7d5-22df-442d-b932-0c001720136c",
			"resource": {
				"resourceType": "Immunization",
				"meta": {
					"versionId": "1",
					"lastUpdated": "2025-02-25T11:26:48.714+11:00",
					"source": "#h7UVliMIr3RgPe8t",
					"profile": [
						"http://hl7.org.au/fhir/core/StructureDefinition/au-core-immunization",
						"http://hl7.org.au/fhir/ps/StructureDefinition/au-ps-immunization"
					]
				},
				"status": "completed",
				"vaccineCode": {
					"coding": [
						{
							"system": "http://snomed.info/sct",
							"version": "http://snomed.info/sct/32506021000036107/version/20250131",
							"code": "1789171000168108",
							"display": "Diphtheria + tetanus + pertussis 5 component adolescent/adult vaccine injection, 0.5 mL syringe"
						}
					],
					"text": "Diphtheria + tetanus + pertussis 5 component adolescent/adult vaccine injection, 0.5 mL syringe"
				},
				"patient": {
					"reference": "urn:uuid:85822a88-55b1-460c-bb7b-e8fc22d8568f",
					"type": "Patient",
					"display": "Joyce JOHNSON"
				},
				"occurrenceDateTime": "2024-10-05"
			}
		},
		{
			"fullUrl": "urn:uuid:f85ad223-7bed-46f3-893d-e89d6082f9a9",
			"resource": {
				"resourceType": "Observation",
				"meta": {
					"versionId": "1",
					"lastUpdated": "2025-02-25T17:07:44.289+11:00",
					"source": "#E6JiRxpi5nfE9JkO"
				},
				"status": "final",
				"category": [
					{
						"coding": [
							{
								"system": "http://terminology.hl7.org/CodeSystem/observation-category",
								"code": "social-history",
								"display": "Social History"
							}
						]
					}
				],
				"code": {
					"coding": [
						{
							"system": "http://loinc.org",
							"code": "82810-3",
							"display": "Pregnancy status"
						}
					]
				},
				"subject": {
					"reference": "urn:uuid:85822a88-55b1-460c-bb7b-e8fc22d8568f"
				},
				"effectiveDateTime": "2022-06-06T09:30:10+10:00",
				"valueCodeableConcept": {
					"coding": [
						{
							"system": "http://snomed.info/sct",
							"code": "77386006",
							"display": "Pregnant"
						},
						{
							"system": "http://loinc.org",
							"code": "LA15173-0",
							"display": "Pregnant"
						}
					],
					"text": "Pregnant"
				}
			}
		},
		{
			"fullUrl": "urn:uuid:88c8abc8-9480-4688-8d80-069578184dc4",
			"resource": {
				"resourceType": "Device",
				"deviceName": [
					{
						"name": "AU Patient Summary generator",
						"type": "manufacturer-name"
					}
				]
			}
		}
	]
}